
TASKTYPE,ECCMAGNITUDE,TRIAL,RT,CUE,CUEVALIDITY,STIMCOLOR,STIMLOC,RESPONSE,CORRECTRESPONSE,ACCURACY,STIMWAITTIME,TAG,RULES
RETINOTOPICTASK,Intermediate,400,1,524,Yellow,2.2243e-279,J,J,CORRECT,Draft,retinotopic.prs
RETINOTOPICTASK,Intermediate,250,2,400,Blue,2.2243e-279,J,F,INCORRECT,Draft,retinotopic.prs
RETINOTOPICTASK,Retinotopic,400,3,350,Yellow,2.2243e-279,J,J,CORRECT,Draft,retinotopic.prs
RETINOTOPICTASK,Intermediate,250,4,450,Yellow,2.2243e-279,J,J,CORRECT,Draft,retinotopic.prs
RETINOTOPICTASK,Retinotopic,50,5,424,Blue,2.2243e-279,J,F,INCORRECT,Draft,retinotopic.prs
RETINOTOPICTASK,Spatiotopic,250,6,400,Yellow,2.2243e-279,J,J,CORRECT,Draft,retinotopic.prs
RETINOTOPICTASK,Intermediate,50,7,350,Red,2.2243e-279,J,F,INCORRECT,Draft,retinotopic.prs
RETINOTOPICTASK,Retinotopic,400,8,450,Yellow,2.2243e-279,J,J,CORRECT,Draft,retinotopic.prs
RETINOTOPICTASK,Retinotopic,400,9,724,Red,2.2243e-279,J,F,INCORRECT,Draft,retinotopic.prs
RETINOTOPICTASK,Retinotopic,400,10,450,Green,2.2243e-279,J,J,CORRECT,Draft,retinotopic.prs
RETINOTOPICTASK,Spatiotopic,50,1,524,Red,6.849e-303,J,F,INCORRECT,Draft,retinotopic.prs
RETINOTOPICTASK,Spatiotopic,250,2,400,Red,6.849e-303,J,F,INCORRECT,Draft,retinotopic.prs
RETINOTOPICTASK,Spatiotopic,250,3,374,Yellow,6.849e-303,J,J,CORRECT,Draft,retinotopic.prs
RETINOTOPICTASK,Intermediate,250,4,350,Green,6.849e-303,J,J,CORRECT,Draft,retinotopic.prs
RETINOTOPICTASK,Spatiotopic,250,5,350,Green,6.849e-303,J,J,CORRECT,Draft,retinotopic.prs
RETINOTOPICTASK,Intermediate,250,6,400,Green,6.849e-303,J,J,CORRECT,Draft,retinotopic.prs
RETINOTOPICTASK,Intermediate,50,7,400,Blue,6.849e-303,J,F,INCORRECT,Draft,retinotopic.prs
RETINOTOPICTASK,Spatiotopic,250,8,400,Red,6.849e-303,J,F,INCORRECT,Draft,retinotopic.prs
RETINOTOPICTASK,Spatiotopic,250,9,400,Yellow,6.849e-303,J,J,CORRECT,Draft,retinotopic.prs
RETINOTOPICTASK,Spatiotopic,50,10,350,Red,6.849e-303,J,F,INCORRECT,Draft,retinotopic.prs
RETINOTOPICTASK,Spatiotopic,250,1,574,Green,0,J,J,CORRECT,Draft,retinotopic.prs
RETINOTOPICTASK,Intermediate,50,2,374,Yellow,0,J,J,CORRECT,Draft,retinotopic.prs
RETINOTOPICTASK,Intermediate,250,3,424,Green,0,J,J,CORRECT,Draft,retinotopic.prs
RETINOTOPICTASK,Intermediate,400,4,350,Blue,0,J,F,INCORRECT,Draft,retinotopic.prs
RETINOTOPICTASK,Intermediate,250,5,350,Yellow,0,J,J,CORRECT,Draft,retinotopic.prs
RETINOTOPICTASK,Retinotopic,50,6,700,Green,0,J,J,CORRECT,Draft,retinotopic.prs
RETINOTOPICTASK,Retinotopic,250,7,450,Yellow,0,J,J,CORRECT,Draft,retinotopic.prs
RETINOTOPICTASK,Retinotopic,400,8,400,Green,0,J,J,CORRECT,Draft,retinotopic.prs
RETINOTOPICTASK,Intermediate,400,9,350,Yellow,0,J,J,CORRECT,Draft,retinotopic.prs
RETINOTOPICTASK,Retinotopic,400,10,450,Blue,0,J,F,INCORRECT,Draft,retinotopic.prs
RETINOTOPICTASK,Spatiotopic,50,1,574,Blue,0,J,F,INCORRECT,Draft,retinotopic.prs
RETINOTOPICTASK,Intermediate,400,2,350,Red,0,J,F,INCORRECT,Draft,retinotopic.prs
RETINOTOPICTASK,Intermediate,50,3,700,Green,0,J,J,CORRECT,Draft,retinotopic.prs
RETINOTOPICTASK,Retinotopic,400,4,424,Red,0,J,F,INCORRECT,Draft,retinotopic.prs
RETINOTOPICTASK,Retinotopic,250,5,700,Red,0,J,F,INCORRECT,Draft,retinotopic.prs
RETINOTOPICTASK,Spatiotopic,250,6,350,Red,0,J,F,INCORRECT,Draft,retinotopic.prs
RETINOTOPICTASK,Spatiotopic,250,7,350,Blue,0,J,F,INCORRECT,Draft,retinotopic.prs
RETINOTOPICTASK,Spatiotopic,400,8,374,Yellow,0,J,J,CORRECT,Draft,retinotopic.prs
RETINOTOPICTASK,Retinotopic,400,9,400,Red,0,J,F,INCORRECT,Draft,retinotopic.prs
RETINOTOPICTASK,Spatiotopic,250,10,700,Red,0,J,F,INCORRECT,Draft,retinotopic.prs
RETINOTOPICTASK,Spatiotopic,400,1,874,Yellow,0,J,J,CORRECT,Draft,retinotopic.prs
RETINOTOPICTASK,Retinotopic,400,2,474,Red,0,J,F,INCORRECT,Draft,retinotopic.prs
RETINOTOPICTASK,Spatiotopic,250,3,700,Red,0,J,F,INCORRECT,Draft,retinotopic.prs
RETINOTOPICTASK,Spatiotopic,250,4,700,Blue,0,J,F,INCORRECT,Draft,retinotopic.prs
RETINOTOPICTASK,Spatiotopic,250,5,700,Green,0,J,J,CORRECT,Draft,retinotopic.prs
RETINOTOPICTASK,Retinotopic,250,6,450,Blue,0,J,F,INCORRECT,Draft,retinotopic.prs
RETINOTOPICTASK,Intermediate,50,7,350,Green,0,J,J,CORRECT,Draft,retinotopic.prs
RETINOTOPICTASK,Retinotopic,50,8,374,Yellow,0,J,J,CORRECT,Draft,retinotopic.prs
RETINOTOPICTASK,Intermediate,50,9,400,Yellow,0,J,J,CORRECT,Draft,retinotopic.prs
RETINOTOPICTASK,Intermediate,250,10,350,Blue,0,J,F,INCORRECT,Draft,retinotopic.prs
RETINOTOPICTASK,Spatiotopic,250,1,574,Blue,1.13421e+243,J,F,INCORRECT,Draft,retinotopic.prs
RETINOTOPICTASK,Intermediate,50,2,374,Blue,1.13421e+243,J,F,INCORRECT,Draft,retinotopic.prs
RETINOTOPICTASK,Intermediate,250,3,424,Blue,1.13421e+243,J,F,INCORRECT,Draft,retinotopic.prs
RETINOTOPICTASK,Intermediate,400,4,350,Red,1.13421e+243,F,J,INCORRECT,Draft,retinotopic.prs
RETINOTOPICTASK,Intermediate,250,5,350,Blue,1.13421e+243,J,F,INCORRECT,Draft,retinotopic.prs
RETINOTOPICTASK,Retinotopic,50,6,700,Red,1.13421e+243,F,J,INCORRECT,Draft,retinotopic.prs
RETINOTOPICTASK,Retinotopic,250,7,450,Blue,1.13421e+243,J,F,INCORRECT,Draft,retinotopic.prs
RETINOTOPICTASK,Retinotopic,400,8,400,Blue,1.13421e+243,J,F,INCORRECT,Draft,retinotopic.prs
RETINOTOPICTASK,Intermediate,400,9,350,Blue,1.13421e+243,J,F,INCORRECT,Draft,retinotopic.prs
RETINOTOPICTASK,Retinotopic,400,10,450,Blue,1.13421e+243,J,F,INCORRECT,Draft,retinotopic.prs
RETINOTOPICTASK,Spatiotopic,50,1,574,Blue,4.24896e-321,F,F,CORRECT,Draft,retinotopic.prs
RETINOTOPICTASK,Intermediate,400,2,350,Red,4.24896e-321,J,J,CORRECT,Draft,retinotopic.prs
RETINOTOPICTASK,Intermediate,50,3,700,Red,4.24896e-321,J,J,CORRECT,Draft,retinotopic.prs
RETINOTOPICTASK,Retinotopic,400,4,424,Blue,4.24896e-321,F,F,CORRECT,Draft,retinotopic.prs
RETINOTOPICTASK,Retinotopic,250,5,700,Blue,4.24896e-321,F,F,CORRECT,Draft,retinotopic.prs
RETINOTOPICTASK,Spatiotopic,250,6,350,Blue,4.24896e-321,F,F,CORRECT,Draft,retinotopic.prs
RETINOTOPICTASK,Spatiotopic,250,7,350,Red,4.24896e-321,J,J,CORRECT,Draft,retinotopic.prs
RETINOTOPICTASK,Spatiotopic,400,8,374,Blue,4.24896e-321,F,F,CORRECT,Draft,retinotopic.prs
RETINOTOPICTASK,Retinotopic,400,9,400,Blue,4.24896e-321,F,F,CORRECT,Draft,retinotopic.prs
RETINOTOPICTASK,Spatiotopic,250,10,700,Red,4.24896e-321,J,J,CORRECT,Draft,retinotopic.prs
RETINOTOPICTASK,Spatiotopic,400,1,874,Red,4.24896e-321,J,J,CORRECT,Draft,retinotopic.prs
RETINOTOPICTASK,Retinotopic,400,2,474,Blue,4.24896e-321,F,F,CORRECT,Draft,retinotopic.prs
RETINOTOPICTASK,Spatiotopic,250,3,700,Blue,4.24896e-321,F,F,CORRECT,Draft,retinotopic.prs
RETINOTOPICTASK,Spatiotopic,250,4,700,Blue,4.24896e-321,F,F,CORRECT,Draft,retinotopic.prs
RETINOTOPICTASK,Spatiotopic,250,5,700,Blue,4.24896e-321,F,F,CORRECT,Draft,retinotopic.prs
RETINOTOPICTASK,Retinotopic,250,6,450,Red,4.24896e-321,J,J,CORRECT,Draft,retinotopic.prs
RETINOTOPICTASK,Intermediate,50,7,350,Red,4.24896e-321,J,J,CORRECT,Draft,retinotopic.prs
RETINOTOPICTASK,Retinotopic,50,8,374,Blue,4.24896e-321,F,F,CORRECT,Draft,retinotopic.prs
RETINOTOPICTASK,Intermediate,50,9,400,Red,4.24896e-321,J,J,CORRECT,Draft,retinotopic.prs
RETINOTOPICTASK,Intermediate,250,10,350,Red,4.24896e-321,J,J,CORRECT,Draft,retinotopic.prs
RETINOTOPICTASK,Spatiotopic,50,1,524,Blue,4.24896e-321,F,F,CORRECT,Draft,retinotopic.prs
RETINOTOPICTASK,Intermediate,50,2,400,Blue,4.24896e-321,F,F,CORRECT,Draft,retinotopic.prs
RETINOTOPICTASK,Retinotopic,400,3,374,Red,4.24896e-321,J,J,CORRECT,Draft,retinotopic.prs
RETINOTOPICTASK,Intermediate,50,4,350,Red,4.24896e-321,J,J,CORRECT,Draft,retinotopic.prs
RETINOTOPICTASK,Intermediate,250,5,350,Blue,4.24896e-321,F,F,CORRECT,Draft,retinotopic.prs
RETINOTOPICTASK,Intermediate,50,6,400,Blue,4.24896e-321,F,F,CORRECT,Draft,retinotopic.prs
RETINOTOPICTASK,Spatiotopic,400,7,350,Blue,4.24896e-321,F,F,CORRECT,Draft,retinotopic.prs
RETINOTOPICTASK,Spatiotopic,50,8,700,Red,4.24896e-321,J,J,CORRECT,Draft,retinotopic.prs
RETINOTOPICTASK,Intermediate,250,9,400,Red,4.24896e-321,J,J,CORRECT,Draft,retinotopic.prs
RETINOTOPICTASK,Retinotopic,50,10,450,Red,4.24896e-321,J,J,CORRECT,Draft,retinotopic.prs
RETINOTOPICTASK,Retinotopic,250,1,574,Blue,4.24896e-321,F,F,CORRECT,Draft,retinotopic.prs
RETINOTOPICTASK,Retinotopic,50,2,724,Red,4.24896e-321,J,J,CORRECT,Draft,retinotopic.prs
RETINOTOPICTASK,Retinotopic,50,3,424,Blue,4.24896e-321,F,F,CORRECT,Draft,retinotopic.prs
RETINOTOPICTASK,Intermediate,400,4,350,Red,4.24896e-321,J,J,CORRECT,Draft,retinotopic.prs
RETINOTOPICTASK,Retinotopic,250,5,700,Blue,4.24896e-321,F,F,CORRECT,Draft,retinotopic.prs
RETINOTOPICTASK,Retinotopic,400,6,374,Blue,4.24896e-321,F,F,CORRECT,Draft,retinotopic.prs
RETINOTOPICTASK,Retinotopic,250,7,450,Blue,4.24896e-321,F,F,CORRECT,Draft,retinotopic.prs
RETINOTOPICTASK,Retinotopic,400,8,700,Blue,4.24896e-321,F,F,CORRECT,Draft,retinotopic.prs
RETINOTOPICTASK,Spatiotopic,400,9,400,Blue,4.24896e-321,F,F,CORRECT,Draft,retinotopic.prs
RETINOTOPICTASK,Intermediate,50,10,400,Blue,4.24896e-321,F,F,CORRECT,Draft,retinotopic.prs
RETINOTOPICTASK,Intermediate,50,1,524,Blue,4.24896e-321,F,F,CORRECT,Draft,retinotopic.prs
RETINOTOPICTASK,Spatiotopic,400,2,350,Blue,4.24896e-321,F,F,CORRECT,Draft,retinotopic.prs
RETINOTOPICTASK,Spatiotopic,50,3,350,Blue,4.24896e-321,F,F,CORRECT,Draft,retinotopic.prs
RETINOTOPICTASK,Intermediate,50,4,424,Blue,4.24896e-321,F,F,CORRECT,Draft,retinotopic.prs
RETINOTOPICTASK,Intermediate,400,5,400,Red,4.24896e-321,J,J,CORRECT,Draft,retinotopic.prs
RETINOTOPICTASK,Spatiotopic,400,6,724,Red,4.24896e-321,J,J,CORRECT,Draft,retinotopic.prs
RETINOTOPICTASK,Spatiotopic,400,7,350,Red,4.24896e-321,J,J,CORRECT,Draft,retinotopic.prs
RETINOTOPICTASK,Intermediate,250,8,450,Red,4.24896e-321,J,J,CORRECT,Draft,retinotopic.prs
RETINOTOPICTASK,Retinotopic,250,9,700,Red,4.24896e-321,J,J,CORRECT,Draft,retinotopic.prs
RETINOTOPICTASK,Intermediate,400,10,700,Blue,4.24896e-321,F,F,CORRECT,Draft,retinotopic.prs
RETINOTOPICTASK,Intermediate,50,1,524,Blue,4.24896e-321,F,F,CORRECT,Draft,retinotopic.prs
RETINOTOPICTASK,Intermediate,50,2,450,Red,4.24896e-321,J,J,CORRECT,Draft,retinotopic.prs
RETINOTOPICTASK,Spatiotopic,50,3,374,Red,4.24896e-321,J,J,CORRECT,Draft,retinotopic.prs
RETINOTOPICTASK,Retinotopic,50,4,350,Red,4.24896e-321,J,J,CORRECT,Draft,retinotopic.prs
RETINOTOPICTASK,Retinotopic,250,5,450,Red,4.24896e-321,J,J,CORRECT,Draft,retinotopic.prs
RETINOTOPICTASK,Retinotopic,400,6,450,Blue,4.24896e-321,F,F,CORRECT,Draft,retinotopic.prs
RETINOTOPICTASK,Spatiotopic,250,7,450,Red,4.24896e-321,J,J,CORRECT,Draft,retinotopic.prs
RETINOTOPICTASK,Retinotopic,400,8,700,Blue,4.24896e-321,F,F,CORRECT,Draft,retinotopic.prs
RETINOTOPICTASK,Retinotopic,50,9,700,Red,4.24896e-321,J,J,CORRECT,Draft,retinotopic.prs
RETINOTOPICTASK,Retinotopic,400,10,450,Red,4.24896e-321,J,J,CORRECT,Draft,retinotopic.prs
RETINOTOPICTASK,Spatiotopic,400,1,574,Red,5.57182e-315,J,J,CORRECT,Draft,retinotopic.prs
RETINOTOPICTASK,Retinotopic,250,2,724,Blue,5.57182e-315,F,F,CORRECT,Draft,retinotopic.prs
RETINOTOPICTASK,Retinotopic,50,3,474,Red,5.57182e-315,J,J,CORRECT,Draft,retinotopic.prs
RETINOTOPICTASK,Spatiotopic,400,4,350,Red,5.57182e-315,J,J,CORRECT,Draft,retinotopic.prs
RETINOTOPICTASK,Retinotopic,250,5,700,Red,5.57182e-315,J,J,CORRECT,Draft,retinotopic.prs
RETINOTOPICTASK,Intermediate,400,6,724,Blue,5.57182e-315,F,F,CORRECT,Draft,retinotopic.prs
RETINOTOPICTASK,Intermediate,50,7,400,Red,5.57182e-315,J,J,CORRECT,Draft,retinotopic.prs
RETINOTOPICTASK,Spatiotopic,50,8,700,Blue,5.57182e-315,F,F,CORRECT,Draft,retinotopic.prs
RETINOTOPICTASK,Retinotopic,50,9,400,Blue,5.57182e-315,F,F,CORRECT,Draft,retinotopic.prs
RETINOTOPICTASK,Intermediate,50,10,350,Red,5.57182e-315,J,J,CORRECT,Draft,retinotopic.prs
RETINOTOPICTASK,Spatiotopic,50,1,574,Red,3.06157e-247,J,J,CORRECT,Draft,retinotopic.prs
RETINOTOPICTASK,Intermediate,50,2,350,Blue,3.06157e-247,F,F,CORRECT,Draft,retinotopic.prs
RETINOTOPICTASK,Intermediate,400,3,374,Red,3.06157e-247,J,J,CORRECT,Draft,retinotopic.prs
RETINOTOPICTASK,Retinotopic,50,4,450,Red,3.06157e-247,J,J,CORRECT,Draft,retinotopic.prs
RETINOTOPICTASK,Intermediate,400,5,350,Red,3.06157e-247,J,J,CORRECT,Draft,retinotopic.prs
RETINOTOPICTASK,Retinotopic,400,6,350,Red,3.06157e-247,J,J,CORRECT,Draft,retinotopic.prs
RETINOTOPICTASK,Spatiotopic,50,7,400,Blue,3.06157e-247,F,F,CORRECT,Draft,retinotopic.prs
RETINOTOPICTASK,Intermediate,50,8,350,Blue,3.06157e-247,F,F,CORRECT,Draft,retinotopic.prs
RETINOTOPICTASK,Retinotopic,50,9,450,Red,3.06157e-247,J,J,CORRECT,Draft,retinotopic.prs
RETINOTOPICTASK,Intermediate,50,10,350,Blue,3.06157e-247,F,F,CORRECT,Draft,retinotopic.prs
RETINOTOPICTASK,Spatiotopic,50,1,574,Blue,3.06157e-247,F,F,CORRECT,Draft,retinotopic.prs
RETINOTOPICTASK,Spatiotopic,50,2,350,Blue,3.06157e-247,F,F,CORRECT,Draft,retinotopic.prs
RETINOTOPICTASK,Spatiotopic,400,3,374,Blue,3.06157e-247,F,F,CORRECT,Draft,retinotopic.prs
RETINOTOPICTASK,Spatiotopic,400,4,700,Blue,3.06157e-247,F,F,CORRECT,Draft,retinotopic.prs
RETINOTOPICTASK,Retinotopic,400,5,450,Blue,3.06157e-247,F,F,CORRECT,Draft,retinotopic.prs
RETINOTOPICTASK,Intermediate,400,6,350,Red,3.06157e-247,J,J,CORRECT,Draft,retinotopic.prs
RETINOTOPICTASK,Intermediate,250,7,350,Red,3.06157e-247,J,J,CORRECT,Draft,retinotopic.prs
RETINOTOPICTASK,Retinotopic,50,8,700,Blue,3.06157e-247,F,F,CORRECT,Draft,retinotopic.prs
RETINOTOPICTASK,Retinotopic,250,9,400,Blue,3.06157e-247,F,F,CORRECT,Draft,retinotopic.prs
RETINOTOPICTASK,Spatiotopic,250,10,450,Red,3.06157e-247,J,J,CORRECT,Draft,retinotopic.prs
RETINOTOPICTASK,Intermediate,400,1,524,Red,3.06157e-247,J,J,CORRECT,Draft,retinotopic.prs
RETINOTOPICTASK,Intermediate,400,2,400,Red,3.06157e-247,J,J,CORRECT,Draft,retinotopic.prs
RETINOTOPICTASK,Spatiotopic,50,3,400,Red,3.06157e-247,J,J,CORRECT,Draft,retinotopic.prs
RETINOTOPICTASK,Spatiotopic,250,4,374,Blue,3.06157e-247,F,F,CORRECT,Draft,retinotopic.prs
RETINOTOPICTASK,Spatiotopic,50,5,350,Blue,3.06157e-247,F,F,CORRECT,Draft,retinotopic.prs
RETINOTOPICTASK,Retinotopic,400,6,700,Blue,3.06157e-247,F,F,CORRECT,Draft,retinotopic.prs
RETINOTOPICTASK,Retinotopic,400,7,450,Red,3.06157e-247,J,J,CORRECT,Draft,retinotopic.prs
RETINOTOPICTASK,Intermediate,400,8,400,Red,3.06157e-247,J,J,CORRECT,Draft,retinotopic.prs
RETINOTOPICTASK,Intermediate,250,9,350,Blue,3.06157e-247,F,F,CORRECT,Draft,retinotopic.prs
RETINOTOPICTASK,Retinotopic,50,10,400,Blue,3.06157e-247,F,F,CORRECT,Draft,retinotopic.prs
RETINOTOPICTASK,Intermediate,50,1,874,Red,3.06157e-247,J,J,CORRECT,Draft,retinotopic.prs
RETINOTOPICTASK,Intermediate,250,2,700,Red,3.06157e-247,J,J,CORRECT,Draft,retinotopic.prs
RETINOTOPICTASK,Intermediate,400,3,400,Blue,3.06157e-247,F,F,CORRECT,Draft,retinotopic.prs
RETINOTOPICTASK,Retinotopic,250,4,350,Red,3.06157e-247,J,J,CORRECT,Draft,retinotopic.prs
RETINOTOPICTASK,Retinotopic,50,5,374,Red,3.06157e-247,J,J,CORRECT,Draft,retinotopic.prs
RETINOTOPICTASK,Intermediate,250,6,400,Blue,3.06157e-247,F,F,CORRECT,Draft,retinotopic.prs
RETINOTOPICTASK,Retinotopic,250,7,450,Red,3.06157e-247,J,J,CORRECT,Draft,retinotopic.prs
RETINOTOPICTASK,Spatiotopic,50,8,400,Blue,3.06157e-247,F,F,CORRECT,Draft,retinotopic.prs
RETINOTOPICTASK,Spatiotopic,50,9,350,Red,3.06157e-247,J,J,CORRECT,Draft,retinotopic.prs
RETINOTOPICTASK,Spatiotopic,50,10,400,Red,3.06157e-247,J,J,CORRECT,Draft,retinotopic.prs
RETINOTOPICTASK,Intermediate,250,1,524,Blue,-8.33694e+243,F,F,CORRECT,Draft,retinotopic.prs
RETINOTOPICTASK,Spatiotopic,250,2,400,Red,-8.33694e+243,J,J,CORRECT,Draft,retinotopic.prs
RETINOTOPICTASK,Retinotopic,50,3,400,Blue,-8.33694e+243,F,F,CORRECT,Draft,retinotopic.prs
RETINOTOPICTASK,Retinotopic,50,4,374,Red,-8.33694e+243,J,J,CORRECT,Draft,retinotopic.prs
RETINOTOPICTASK,Spatiotopic,50,5,350,Blue,-8.33694e+243,F,F,CORRECT,Draft,retinotopic.prs
RETINOTOPICTASK,Retinotopic,250,6,350,Red,-8.33694e+243,J,J,CORRECT,Draft,retinotopic.prs
RETINOTOPICTASK,Intermediate,50,7,350,Blue,-8.33694e+243,F,F,CORRECT,Draft,retinotopic.prs
RETINOTOPICTASK,Intermediate,50,8,350,Red,-8.33694e+243,J,J,CORRECT,Draft,retinotopic.prs
RETINOTOPICTASK,Intermediate,250,9,350,Blue,-8.33694e+243,F,F,CORRECT,Draft,retinotopic.prs
RETINOTOPICTASK,Spatiotopic,50,10,350,Red,-8.33694e+243,J,J,CORRECT,Draft,retinotopic.prs
RETINOTOPICTASK,Spatiotopic,50,11,350,Red,-8.33694e+243,J,J,CORRECT,Draft,retinotopic.prs
RETINOTOPICTASK,Spatiotopic,50,12,350,Red,-8.33694e+243,J,J,CORRECT,Draft,retinotopic.prs
RETINOTOPICTASK,Intermediate,250,13,350,Blue,-8.33694e+243,F,F,CORRECT,Draft,retinotopic.prs
RETINOTOPICTASK,Intermediate,400,14,350,Blue,-8.33694e+243,F,F,CORRECT,Draft,retinotopic.prs
RETINOTOPICTASK,Intermediate,250,15,350,Blue,-8.33694e+243,F,F,CORRECT,Draft,retinotopic.prs
RETINOTOPICTASK,Retinotopic,400,16,350,Red,-8.33694e+243,J,J,CORRECT,Draft,retinotopic.prs
RETINOTOPICTASK,Spatiotopic,400,17,350,Blue,-8.33694e+243,F,F,CORRECT,Draft,retinotopic.prs
RETINOTOPICTASK,Intermediate,50,18,350,Red,-8.33694e+243,J,J,CORRECT,Draft,retinotopic.prs
RETINOTOPICTASK,Spatiotopic,250,19,350,Blue,-8.33694e+243,F,F,CORRECT,Draft,retinotopic.prs
RETINOTOPICTASK,Retinotopic,400,20,350,Blue,-8.33694e+243,F,F,CORRECT,Draft,retinotopic.prs
RETINOTOPICTASK,Intermediate,50,21,350,Red,-8.33694e+243,J,J,CORRECT,Draft,retinotopic.prs
RETINOTOPICTASK,Retinotopic,50,22,350,Red,-8.33694e+243,J,J,CORRECT,Draft,retinotopic.prs
RETINOTOPICTASK,Intermediate,50,23,350,Blue,-8.33694e+243,F,F,CORRECT,Draft,retinotopic.prs
RETINOTOPICTASK,Intermediate,50,24,350,Red,-8.33694e+243,J,J,CORRECT,Draft,retinotopic.prs
RETINOTOPICTASK,Spatiotopic,250,25,350,Red,-8.33694e+243,J,J,CORRECT,Draft,retinotopic.prs
RETINOTOPICTASK,Spatiotopic,250,26,400,Red,-8.33694e+243,J,J,CORRECT,Draft,retinotopic.prs
RETINOTOPICTASK,Spatiotopic,400,27,400,Blue,-8.33694e+243,F,F,CORRECT,Draft,retinotopic.prs
RETINOTOPICTASK,Intermediate,50,28,350,Blue,-8.33694e+243,F,F,CORRECT,Draft,retinotopic.prs
RETINOTOPICTASK,Spatiotopic,400,29,350,Blue,-8.33694e+243,F,F,CORRECT,Draft,retinotopic.prs
RETINOTOPICTASK,Retinotopic,250,30,350,Red,-8.33694e+243,J,J,CORRECT,Draft,retinotopic.prs
RETINOTOPICTASK,Spatiotopic,400,31,400,Red,-8.33694e+243,J,J,CORRECT,Draft,retinotopic.prs
RETINOTOPICTASK,Spatiotopic,400,32,400,Blue,-8.33694e+243,F,F,CORRECT,Draft,retinotopic.prs
RETINOTOPICTASK,Spatiotopic,400,33,350,Red,-8.33694e+243,J,J,CORRECT,Draft,retinotopic.prs
RETINOTOPICTASK,Retinotopic,50,34,350,Red,-8.33694e+243,J,J,CORRECT,Draft,retinotopic.prs
RETINOTOPICTASK,Intermediate,50,35,350,Red,-8.33694e+243,J,J,CORRECT,Draft,retinotopic.prs
RETINOTOPICTASK,Intermediate,400,36,350,Red,-8.33694e+243,J,J,CORRECT,Draft,retinotopic.prs
RETINOTOPICTASK,Spatiotopic,250,37,350,Blue,-8.33694e+243,F,F,CORRECT,Draft,retinotopic.prs
RETINOTOPICTASK,Retinotopic,50,38,350,Blue,-8.33694e+243,F,F,CORRECT,Draft,retinotopic.prs
RETINOTOPICTASK,Retinotopic,400,39,350,Blue,-8.33694e+243,F,F,CORRECT,Draft,retinotopic.prs
RETINOTOPICTASK,Intermediate,400,40,350,Red,-8.33694e+243,J,J,CORRECT,Draft,retinotopic.prs
RETINOTOPICTASK,Retinotopic,50,41,400,Red,-8.33694e+243,J,J,CORRECT,Draft,retinotopic.prs
RETINOTOPICTASK,Spatiotopic,250,42,400,Red,-8.33694e+243,J,J,CORRECT,Draft,retinotopic.prs
RETINOTOPICTASK,Spatiotopic,50,43,350,Red,-8.33694e+243,J,J,CORRECT,Draft,retinotopic.prs
RETINOTOPICTASK,Intermediate,250,44,350,Blue,-8.33694e+243,F,F,CORRECT,Draft,retinotopic.prs
RETINOTOPICTASK,Retinotopic,250,45,350,Red,-8.33694e+243,J,J,CORRECT,Draft,retinotopic.prs
RETINOTOPICTASK,Retinotopic,250,46,350,Blue,-8.33694e+243,F,F,CORRECT,Draft,retinotopic.prs
RETINOTOPICTASK,Retinotopic,400,47,350,Blue,-8.33694e+243,F,F,CORRECT,Draft,retinotopic.prs
RETINOTOPICTASK,Retinotopic,250,48,350,Red,-8.33694e+243,J,J,CORRECT,Draft,retinotopic.prs
RETINOTOPICTASK,Retinotopic,250,49,350,Red,-8.33694e+243,J,J,CORRECT,Draft,retinotopic.prs
RETINOTOPICTASK,Intermediate,250,50,350,Red,-8.33694e+243,J,J,CORRECT,Draft,retinotopic.prs
RETINOTOPICTASK,Spatiotopic,250,51,350,Blue,-8.33694e+243,F,F,CORRECT,Draft,retinotopic.prs
RETINOTOPICTASK,Intermediate,50,52,350,Blue,-8.33694e+243,F,F,CORRECT,Draft,retinotopic.prs
RETINOTOPICTASK,Spatiotopic,400,53,400,Red,-8.33694e+243,J,J,CORRECT,Draft,retinotopic.prs
RETINOTOPICTASK,Spatiotopic,400,54,400,Red,-8.33694e+243,J,J,CORRECT,Draft,retinotopic.prs
RETINOTOPICTASK,Intermediate,50,55,350,Blue,-8.33694e+243,F,F,CORRECT,Draft,retinotopic.prs
RETINOTOPICTASK,Retinotopic,50,56,350,Red,-8.33694e+243,J,J,CORRECT,Draft,retinotopic.prs
RETINOTOPICTASK,Intermediate,400,57,350,Red,-8.33694e+243,J,J,CORRECT,Draft,retinotopic.prs
RETINOTOPICTASK,Spatiotopic,400,58,400,Red,-8.33694e+243,J,J,CORRECT,Draft,retinotopic.prs
RETINOTOPICTASK,Spatiotopic,50,59,400,Red,-8.33694e+243,J,J,CORRECT,Draft,retinotopic.prs
RETINOTOPICTASK,Intermediate,50,60,350,Blue,-8.33694e+243,F,F,CORRECT,Draft,retinotopic.prs
RETINOTOPICTASK,Retinotopic,400,61,350,Blue,-8.33694e+243,F,F,CORRECT,Draft,retinotopic.prs
RETINOTOPICTASK,Intermediate,250,62,350,Red,-8.33694e+243,J,J,CORRECT,Draft,retinotopic.prs
RETINOTOPICTASK,Retinotopic,400,63,350,Blue,-8.33694e+243,F,F,CORRECT,Draft,retinotopic.prs
RETINOTOPICTASK,Retinotopic,400,64,350,Blue,-8.33694e+243,F,F,CORRECT,Draft,retinotopic.prs
RETINOTOPICTASK,Retinotopic,400,65,350,Red,-8.33694e+243,J,J,CORRECT,Draft,retinotopic.prs
RETINOTOPICTASK,Retinotopic,50,66,350,Blue,-8.33694e+243,F,F,CORRECT,Draft,retinotopic.prs
RETINOTOPICTASK,Intermediate,250,67,350,Red,-8.33694e+243,J,J,CORRECT,Draft,retinotopic.prs
RETINOTOPICTASK,Intermediate,250,68,350,Red,-8.33694e+243,J,J,CORRECT,Draft,retinotopic.prs
RETINOTOPICTASK,Intermediate,250,69,350,Blue,-8.33694e+243,F,F,CORRECT,Draft,retinotopic.prs
RETINOTOPICTASK,Retinotopic,50,70,350,Blue,-8.33694e+243,F,F,CORRECT,Draft,retinotopic.prs
RETINOTOPICTASK,Spatiotopic,250,71,400,Red,-8.33694e+243,J,J,CORRECT,Draft,retinotopic.prs
RETINOTOPICTASK,Spatiotopic,250,72,400,Red,-8.33694e+243,J,J,CORRECT,Draft,retinotopic.prs
RETINOTOPICTASK,Spatiotopic,250,73,400,Red,-8.33694e+243,J,J,CORRECT,Draft,retinotopic.prs
RETINOTOPICTASK,Intermediate,250,74,350,Red,-8.33694e+243,J,J,CORRECT,Draft,retinotopic.prs
RETINOTOPICTASK,Intermediate,400,75,350,Red,-8.33694e+243,J,J,CORRECT,Draft,retinotopic.prs
RETINOTOPICTASK,Spatiotopic,250,76,350,Red,-8.33694e+243,J,J,CORRECT,Draft,retinotopic.prs
RETINOTOPICTASK,Intermediate,50,77,350,Blue,-8.33694e+243,F,F,CORRECT,Draft,retinotopic.prs
RETINOTOPICTASK,Intermediate,250,78,350,Blue,-8.33694e+243,F,F,CORRECT,Draft,retinotopic.prs
RETINOTOPICTASK,Spatiotopic,50,79,400,Red,-8.33694e+243,J,J,CORRECT,Draft,retinotopic.prs
RETINOTOPICTASK,Spatiotopic,50,80,400,Red,-8.33694e+243,J,J,CORRECT,Draft,retinotopic.prs
RETINOTOPICTASK,Retinotopic,50,81,350,Red,-8.33694e+243,J,J,CORRECT,Draft,retinotopic.prs
RETINOTOPICTASK,Retinotopic,250,82,350,Red,-8.33694e+243,J,J,CORRECT,Draft,retinotopic.prs
RETINOTOPICTASK,Intermediate,400,83,350,Blue,-8.33694e+243,F,F,CORRECT,Draft,retinotopic.prs
RETINOTOPICTASK,Intermediate,250,84,350,Blue,-8.33694e+243,F,F,CORRECT,Draft,retinotopic.prs
RETINOTOPICTASK,Retinotopic,250,85,350,Red,-8.33694e+243,J,J,CORRECT,Draft,retinotopic.prs
RETINOTOPICTASK,Spatiotopic,50,86,350,Red,-8.33694e+243,J,J,CORRECT,Draft,retinotopic.prs
RETINOTOPICTASK,Spatiotopic,400,87,400,Blue,-8.33694e+243,F,F,CORRECT,Draft,retinotopic.prs
RETINOTOPICTASK,Retinotopic,50,88,350,Red,-8.33694e+243,J,J,CORRECT,Draft,retinotopic.prs
RETINOTOPICTASK,Intermediate,250,89,350,Blue,-8.33694e+243,F,F,CORRECT,Draft,retinotopic.prs
RETINOTOPICTASK,Intermediate,250,90,350,Red,-8.33694e+243,J,J,CORRECT,Draft,retinotopic.prs
RETINOTOPICTASK,Intermediate,250,91,350,Blue,-8.33694e+243,F,F,CORRECT,Draft,retinotopic.prs
RETINOTOPICTASK,Intermediate,250,92,350,Blue,-8.33694e+243,F,F,CORRECT,Draft,retinotopic.prs
RETINOTOPICTASK,Spatiotopic,250,93,350,Red,-8.33694e+243,J,J,CORRECT,Draft,retinotopic.prs
RETINOTOPICTASK,Intermediate,400,94,350,Blue,-8.33694e+243,F,F,CORRECT,Draft,retinotopic.prs
RETINOTOPICTASK,Intermediate,400,95,350,Red,-8.33694e+243,J,J,CORRECT,Draft,retinotopic.prs
RETINOTOPICTASK,Retinotopic,400,96,350,Red,-8.33694e+243,J,J,CORRECT,Draft,retinotopic.prs
RETINOTOPICTASK,Intermediate,50,97,350,Red,-8.33694e+243,J,J,CORRECT,Draft,retinotopic.prs
RETINOTOPICTASK,Retinotopic,400,98,350,Blue,-8.33694e+243,F,F,CORRECT,Draft,retinotopic.prs
RETINOTOPICTASK,Retinotopic,400,99,350,Red,-8.33694e+243,J,J,CORRECT,Draft,retinotopic.prs
RETINOTOPICTASK,Spatiotopic,50,100,350,Blue,-8.33694e+243,F,F,CORRECT,Draft,retinotopic.prs
RETINOTOPICTASK,Spatiotopic,400,101,400,Red,-8.33694e+243,J,J,CORRECT,Draft,retinotopic.prs
RETINOTOPICTASK,Retinotopic,400,102,350,Red,-8.33694e+243,J,J,CORRECT,Draft,retinotopic.prs
RETINOTOPICTASK,Spatiotopic,400,103,400,Red,-8.33694e+243,J,J,CORRECT,Draft,retinotopic.prs
RETINOTOPICTASK,Intermediate,400,104,350,Blue,-8.33694e+243,F,F,CORRECT,Draft,retinotopic.prs
RETINOTOPICTASK,Retinotopic,250,105,350,Blue,-8.33694e+243,F,F,CORRECT,Draft,retinotopic.prs
RETINOTOPICTASK,Spatiotopic,400,106,400,Blue,-8.33694e+243,F,F,CORRECT,Draft,retinotopic.prs
RETINOTOPICTASK,Retinotopic,400,107,350,Red,-8.33694e+243,J,J,CORRECT,Draft,retinotopic.prs
RETINOTOPICTASK,Spatiotopic,400,108,350,Blue,-8.33694e+243,F,F,CORRECT,Draft,retinotopic.prs
RETINOTOPICTASK,Intermediate,50,109,350,Blue,-8.33694e+243,F,F,CORRECT,Draft,retinotopic.prs
RETINOTOPICTASK,Spatiotopic,400,110,400,Blue,-8.33694e+243,F,F,CORRECT,Draft,retinotopic.prs
RETINOTOPICTASK,Retinotopic,400,111,350,Blue,-8.33694e+243,F,F,CORRECT,Draft,retinotopic.prs
RETINOTOPICTASK,Intermediate,50,112,350,Blue,-8.33694e+243,F,F,CORRECT,Draft,retinotopic.prs
RETINOTOPICTASK,Intermediate,400,113,350,Red,-8.33694e+243,J,J,CORRECT,Draft,retinotopic.prs
RETINOTOPICTASK,Retinotopic,50,114,350,Red,-8.33694e+243,J,J,CORRECT,Draft,retinotopic.prs
RETINOTOPICTASK,Intermediate,50,115,350,Red,-8.33694e+243,J,J,CORRECT,Draft,retinotopic.prs
RETINOTOPICTASK,Retinotopic,250,116,350,Red,-8.33694e+243,J,J,CORRECT,Draft,retinotopic.prs
RETINOTOPICTASK,Intermediate,50,117,350,Blue,-8.33694e+243,F,F,CORRECT,Draft,retinotopic.prs
RETINOTOPICTASK,Retinotopic,250,118,350,Blue,-8.33694e+243,F,F,CORRECT,Draft,retinotopic.prs
RETINOTOPICTASK,Spatiotopic,50,119,400,Red,-8.33694e+243,J,J,CORRECT,Draft,retinotopic.prs
RETINOTOPICTASK,Spatiotopic,250,120,350,Blue,-8.33694e+243,F,F,CORRECT,Draft,retinotopic.prs
RETINOTOPICTASK,Spatiotopic,50,121,350,Red,-8.33694e+243,J,J,CORRECT,Draft,retinotopic.prs
RETINOTOPICTASK,Intermediate,50,122,350,Red,-8.33694e+243,J,J,CORRECT,Draft,retinotopic.prs
RETINOTOPICTASK,Retinotopic,50,123,350,Blue,-8.33694e+243,F,F,CORRECT,Draft,retinotopic.prs
RETINOTOPICTASK,Intermediate,400,124,350,Blue,-8.33694e+243,F,F,CORRECT,Draft,retinotopic.prs
RETINOTOPICTASK,Spatiotopic,250,125,350,Red,-8.33694e+243,J,J,CORRECT,Draft,retinotopic.prs
RETINOTOPICTASK,Spatiotopic,50,126,350,Blue,-8.33694e+243,F,F,CORRECT,Draft,retinotopic.prs
RETINOTOPICTASK,Intermediate,50,127,350,Red,-8.33694e+243,J,J,CORRECT,Draft,retinotopic.prs
RETINOTOPICTASK,Spatiotopic,250,128,350,Blue,-8.33694e+243,F,F,CORRECT,Draft,retinotopic.prs
RETINOTOPICTASK,Retinotopic,250,129,350,Red,-8.33694e+243,J,J,CORRECT,Draft,retinotopic.prs
RETINOTOPICTASK,Intermediate,50,130,350,Red,-8.33694e+243,J,J,CORRECT,Draft,retinotopic.prs
RETINOTOPICTASK,Retinotopic,400,131,350,Red,-8.33694e+243,J,J,CORRECT,Draft,retinotopic.prs
RETINOTOPICTASK,Intermediate,250,132,350,Blue,-8.33694e+243,F,F,CORRECT,Draft,retinotopic.prs
RETINOTOPICTASK,Retinotopic,250,133,350,Blue,-8.33694e+243,F,F,CORRECT,Draft,retinotopic.prs
RETINOTOPICTASK,Spatiotopic,400,134,350,Red,-8.33694e+243,J,J,CORRECT,Draft,retinotopic.prs
RETINOTOPICTASK,Spatiotopic,50,135,350,Blue,-8.33694e+243,F,F,CORRECT,Draft,retinotopic.prs
RETINOTOPICTASK,Spatiotopic,250,136,350,Blue,-8.33694e+243,F,F,CORRECT,Draft,retinotopic.prs
RETINOTOPICTASK,Retinotopic,250,137,350,Blue,-8.33694e+243,F,F,CORRECT,Draft,retinotopic.prs
RETINOTOPICTASK,Intermediate,250,138,350,Red,-8.33694e+243,J,J,CORRECT,Draft,retinotopic.prs
RETINOTOPICTASK,Intermediate,250,139,350,Red,-8.33694e+243,J,J,CORRECT,Draft,retinotopic.prs
RETINOTOPICTASK,Intermediate,400,140,350,Red,-8.33694e+243,J,J,CORRECT,Draft,retinotopic.prs
RETINOTOPICTASK,Retinotopic,400,141,350,Blue,-8.33694e+243,F,F,CORRECT,Draft,retinotopic.prs
RETINOTOPICTASK,Retinotopic,250,142,350,Blue,-8.33694e+243,F,F,CORRECT,Draft,retinotopic.prs
RETINOTOPICTASK,Intermediate,250,143,350,Red,-8.33694e+243,J,J,CORRECT,Draft,retinotopic.prs
RETINOTOPICTASK,Retinotopic,400,144,350,Red,-8.33694e+243,J,J,CORRECT,Draft,retinotopic.prs
RETINOTOPICTASK,Retinotopic,250,145,350,Red,-8.33694e+243,J,J,CORRECT,Draft,retinotopic.prs
RETINOTOPICTASK,Spatiotopic,400,146,400,Red,-8.33694e+243,J,J,CORRECT,Draft,retinotopic.prs
RETINOTOPICTASK,Intermediate,250,147,350,Blue,-8.33694e+243,F,F,CORRECT,Draft,retinotopic.prs
RETINOTOPICTASK,Spatiotopic,250,148,400,Red,-8.33694e+243,J,J,CORRECT,Draft,retinotopic.prs
RETINOTOPICTASK,Retinotopic,50,149,350,Blue,-8.33694e+243,F,F,CORRECT,Draft,retinotopic.prs
RETINOTOPICTASK,Intermediate,400,150,350,Red,-8.33694e+243,J,J,CORRECT,Draft,retinotopic.prs
RETINOTOPICTASK,Intermediate,250,151,350,Red,-8.33694e+243,J,J,CORRECT,Draft,retinotopic.prs
RETINOTOPICTASK,Spatiotopic,400,152,400,Blue,-8.33694e+243,F,F,CORRECT,Draft,retinotopic.prs
RETINOTOPICTASK,Intermediate,50,153,350,Blue,-8.33694e+243,F,F,CORRECT,Draft,retinotopic.prs
RETINOTOPICTASK,Spatiotopic,250,154,400,Blue,-8.33694e+243,F,F,CORRECT,Draft,retinotopic.prs
RETINOTOPICTASK,Spatiotopic,400,155,350,Blue,-8.33694e+243,F,F,CORRECT,Draft,retinotopic.prs
RETINOTOPICTASK,Intermediate,250,156,350,Blue,-8.33694e+243,F,F,CORRECT,Draft,retinotopic.prs
RETINOTOPICTASK,Spatiotopic,50,157,350,Blue,-8.33694e+243,F,F,CORRECT,Draft,retinotopic.prs
RETINOTOPICTASK,Intermediate,50,158,350,Red,-8.33694e+243,J,J,CORRECT,Draft,retinotopic.prs
RETINOTOPICTASK,Spatiotopic,400,159,350,Red,-8.33694e+243,J,J,CORRECT,Draft,retinotopic.prs
RETINOTOPICTASK,Retinotopic,400,160,350,Red,-8.33694e+243,J,J,CORRECT,Draft,retinotopic.prs
RETINOTOPICTASK,Spatiotopic,400,161,400,Blue,-8.33694e+243,F,F,CORRECT,Draft,retinotopic.prs
RETINOTOPICTASK,Spatiotopic,400,162,350,Red,-8.33694e+243,J,J,CORRECT,Draft,retinotopic.prs
RETINOTOPICTASK,Retinotopic,50,163,350,Red,-8.33694e+243,J,J,CORRECT,Draft,retinotopic.prs
RETINOTOPICTASK,Intermediate,400,164,350,Red,-8.33694e+243,J,J,CORRECT,Draft,retinotopic.prs
RETINOTOPICTASK,Spatiotopic,250,165,350,Blue,-8.33694e+243,F,F,CORRECT,Draft,retinotopic.prs
RETINOTOPICTASK,Intermediate,250,166,350,Red,-8.33694e+243,J,J,CORRECT,Draft,retinotopic.prs
RETINOTOPICTASK,Spatiotopic,50,167,350,Red,-8.33694e+243,J,J,CORRECT,Draft,retinotopic.prs
RETINOTOPICTASK,Intermediate,400,168,350,Blue,-8.33694e+243,F,F,CORRECT,Draft,retinotopic.prs
RETINOTOPICTASK,Spatiotopic,50,169,400,Blue,-8.33694e+243,F,F,CORRECT,Draft,retinotopic.prs
RETINOTOPICTASK,Spatiotopic,50,170,350,Red,-8.33694e+243,J,J,CORRECT,Draft,retinotopic.prs
RETINOTOPICTASK,Intermediate,50,171,350,Blue,-8.33694e+243,F,F,CORRECT,Draft,retinotopic.prs
RETINOTOPICTASK,Intermediate,400,172,350,Blue,-8.33694e+243,F,F,CORRECT,Draft,retinotopic.prs
RETINOTOPICTASK,Retinotopic,400,173,350,Blue,-8.33694e+243,F,F,CORRECT,Draft,retinotopic.prs
RETINOTOPICTASK,Spatiotopic,400,174,400,Blue,-8.33694e+243,F,F,CORRECT,Draft,retinotopic.prs
RETINOTOPICTASK,Retinotopic,50,175,350,Blue,-8.33694e+243,F,F,CORRECT,Draft,retinotopic.prs
RETINOTOPICTASK,Retinotopic,250,176,350,Blue,-8.33694e+243,F,F,CORRECT,Draft,retinotopic.prs
RETINOTOPICTASK,Spatiotopic,50,177,350,Red,-8.33694e+243,J,J,CORRECT,Draft,retinotopic.prs
RETINOTOPICTASK,Spatiotopic,400,178,350,Red,-8.33694e+243,J,J,CORRECT,Draft,retinotopic.prs
RETINOTOPICTASK,Retinotopic,250,179,350,Blue,-8.33694e+243,F,F,CORRECT,Draft,retinotopic.prs
RETINOTOPICTASK,Retinotopic,250,180,350,Red,-8.33694e+243,J,J,CORRECT,Draft,retinotopic.prs
RETINOTOPICTASK,Intermediate,250,181,350,Blue,-8.33694e+243,F,F,CORRECT,Draft,retinotopic.prs
RETINOTOPICTASK,Retinotopic,50,182,350,Blue,-8.33694e+243,F,F,CORRECT,Draft,retinotopic.prs
RETINOTOPICTASK,Spatiotopic,400,183,350,Blue,-8.33694e+243,F,F,CORRECT,Draft,retinotopic.prs
RETINOTOPICTASK,Retinotopic,50,184,350,Red,-8.33694e+243,J,J,CORRECT,Draft,retinotopic.prs
RETINOTOPICTASK,Intermediate,250,185,350,Red,-8.33694e+243,J,J,CORRECT,Draft,retinotopic.prs
RETINOTOPICTASK,Retinotopic,50,186,350,Red,-8.33694e+243,J,J,CORRECT,Draft,retinotopic.prs
RETINOTOPICTASK,Retinotopic,50,187,350,Red,-8.33694e+243,J,J,CORRECT,Draft,retinotopic.prs
RETINOTOPICTASK,Intermediate,400,188,350,Red,-8.33694e+243,J,J,CORRECT,Draft,retinotopic.prs
RETINOTOPICTASK,Spatiotopic,50,189,350,Blue,-8.33694e+243,F,F,CORRECT,Draft,retinotopic.prs
RETINOTOPICTASK,Retinotopic,250,190,350,Red,-8.33694e+243,J,J,CORRECT,Draft,retinotopic.prs
RETINOTOPICTASK,Spatiotopic,400,191,350,Red,-8.33694e+243,J,J,CORRECT,Draft,retinotopic.prs
RETINOTOPICTASK,Intermediate,50,192,350,Blue,-8.33694e+243,F,F,CORRECT,Draft,retinotopic.prs
RETINOTOPICTASK,Intermediate,50,193,350,Blue,-8.33694e+243,F,F,CORRECT,Draft,retinotopic.prs
RETINOTOPICTASK,Spatiotopic,400,194,350,Blue,-8.33694e+243,F,F,CORRECT,Draft,retinotopic.prs
RETINOTOPICTASK,Intermediate,250,195,350,Red,-8.33694e+243,J,J,CORRECT,Draft,retinotopic.prs
RETINOTOPICTASK,Retinotopic,250,196,350,Blue,-8.33694e+243,F,F,CORRECT,Draft,retinotopic.prs
RETINOTOPICTASK,Retinotopic,400,197,350,Blue,-8.33694e+243,F,F,CORRECT,Draft,retinotopic.prs
RETINOTOPICTASK,Retinotopic,50,198,350,Red,-8.33694e+243,J,J,CORRECT,Draft,retinotopic.prs
RETINOTOPICTASK,Retinotopic,50,199,350,Blue,-8.33694e+243,F,F,CORRECT,Draft,retinotopic.prs
RETINOTOPICTASK,Spatiotopic,400,200,350,Blue,-8.33694e+243,F,F,CORRECT,Draft,retinotopic.prs
RETINOTOPICTASK,Spatiotopic,250,1,574,Blue,1.4854e-313,F,F,CORRECT,Draft,retinotopic.prs
RETINOTOPICTASK,Spatiotopic,50,2,374,Red,1.4854e-313,J,J,CORRECT,Draft,retinotopic.prs
RETINOTOPICTASK,Retinotopic,250,3,374,Red,1.4854e-313,J,J,CORRECT,Draft,retinotopic.prs
RETINOTOPICTASK,Retinotopic,50,4,350,Red,1.4854e-313,J,J,CORRECT,Draft,retinotopic.prs
RETINOTOPICTASK,Retinotopic,400,5,350,Red,1.4854e-313,J,J,CORRECT,Draft,retinotopic.prs
RETINOTOPICTASK,Retinotopic,400,6,350,Red,1.4854e-313,J,J,CORRECT,Draft,retinotopic.prs
RETINOTOPICTASK,Retinotopic,250,7,350,Blue,1.4854e-313,F,F,CORRECT,Draft,retinotopic.prs
RETINOTOPICTASK,Spatiotopic,400,8,350,Red,1.4854e-313,J,J,CORRECT,Draft,retinotopic.prs
RETINOTOPICTASK,Retinotopic,250,9,350,Blue,1.4854e-313,F,F,CORRECT,Draft,retinotopic.prs
RETINOTOPICTASK,Retinotopic,50,10,350,Red,1.4854e-313,J,J,CORRECT,Draft,retinotopic.prs
RETINOTOPICTASK,Intermediate,400,1,524,Blue,7.13352e-319,F,F,CORRECT,Draft,retinotopic.prs
RETINOTOPICTASK,Intermediate,250,2,350,Blue,7.13352e-319,F,F,CORRECT,Draft,retinotopic.prs
RETINOTOPICTASK,Retinotopic,400,3,350,Red,7.13352e-319,J,J,CORRECT,Draft,retinotopic.prs
RETINOTOPICTASK,Intermediate,250,4,350,Red,7.13352e-319,J,J,CORRECT,Draft,retinotopic.prs
RETINOTOPICTASK,Retinotopic,50,5,374,Blue,7.13352e-319,F,F,CORRECT,Draft,retinotopic.prs
RETINOTOPICTASK,Spatiotopic,250,6,350,Blue,7.13352e-319,F,F,CORRECT,Draft,retinotopic.prs
RETINOTOPICTASK,Intermediate,50,7,374,Red,7.13352e-319,J,J,CORRECT,Draft,retinotopic.prs
RETINOTOPICTASK,Retinotopic,400,8,350,Blue,7.13352e-319,F,F,CORRECT,Draft,retinotopic.prs
RETINOTOPICTASK,Retinotopic,400,9,350,Blue,7.13352e-319,F,F,CORRECT,Draft,retinotopic.prs
RETINOTOPICTASK,Retinotopic,400,10,350,Blue,7.13352e-319,F,F,CORRECT,Draft,retinotopic.prs
RETINOTOPICTASK,Retinotopic,50,1,524,Red,7.13352e-319,J,J,CORRECT,Draft,retinotopic.prs
RETINOTOPICTASK,Intermediate,50,2,350,Blue,7.13352e-319,F,F,CORRECT,Draft,retinotopic.prs
RETINOTOPICTASK,Retinotopic,50,3,374,Blue,7.13352e-319,F,F,CORRECT,Draft,retinotopic.prs
RETINOTOPICTASK,Retinotopic,250,4,350,Blue,7.13352e-319,F,F,CORRECT,Draft,retinotopic.prs
RETINOTOPICTASK,Retinotopic,250,5,400,Red,7.13352e-319,J,J,CORRECT,Draft,retinotopic.prs
RETINOTOPICTASK,Retinotopic,400,6,350,Red,7.13352e-319,J,J,CORRECT,Draft,retinotopic.prs
RETINOTOPICTASK,Retinotopic,400,7,350,Blue,7.13352e-319,F,F,CORRECT,Draft,retinotopic.prs
RETINOTOPICTASK,Spatiotopic,250,8,350,Red,7.13352e-319,J,J,CORRECT,Draft,retinotopic.prs
RETINOTOPICTASK,Spatiotopic,400,9,400,Blue,7.13352e-319,F,F,CORRECT,Draft,retinotopic.prs
RETINOTOPICTASK,Spatiotopic,400,10,400,Red,7.13352e-319,J,J,CORRECT,Draft,retinotopic.prs
RETINOTOPICTASK,Spatiotopic,400,11,400,Red,7.13352e-319,J,J,CORRECT,Draft,retinotopic.prs
RETINOTOPICTASK,Intermediate,250,12,350,Blue,7.13352e-319,F,F,CORRECT,Draft,retinotopic.prs
RETINOTOPICTASK,Spatiotopic,250,13,350,Red,7.13352e-319,J,J,CORRECT,Draft,retinotopic.prs
RETINOTOPICTASK,Intermediate,400,14,350,Blue,7.13352e-319,F,F,CORRECT,Draft,retinotopic.prs
RETINOTOPICTASK,Intermediate,250,15,350,Red,7.13352e-319,J,J,CORRECT,Draft,retinotopic.prs
RETINOTOPICTASK,Intermediate,50,16,350,Blue,7.13352e-319,F,F,CORRECT,Draft,retinotopic.prs
RETINOTOPICTASK,Spatiotopic,50,17,350,Blue,7.13352e-319,F,F,CORRECT,Draft,retinotopic.prs
RETINOTOPICTASK,Spatiotopic,50,18,400,Red,7.13352e-319,J,J,CORRECT,Draft,retinotopic.prs
RETINOTOPICTASK,Retinotopic,400,19,350,Blue,7.13352e-319,F,F,CORRECT,Draft,retinotopic.prs
RETINOTOPICTASK,Spatiotopic,50,20,350,Red,7.13352e-319,J,J,CORRECT,Draft,retinotopic.prs
RETINOTOPICTASK,Spatiotopic,400,21,350,Red,7.13352e-319,J,J,CORRECT,Draft,retinotopic.prs
RETINOTOPICTASK,Retinotopic,250,22,350,Blue,7.13352e-319,F,F,CORRECT,Draft,retinotopic.prs
RETINOTOPICTASK,Intermediate,250,23,350,Red,7.13352e-319,J,J,CORRECT,Draft,retinotopic.prs
RETINOTOPICTASK,Intermediate,50,24,350,Red,7.13352e-319,J,J,CORRECT,Draft,retinotopic.prs
RETINOTOPICTASK,Intermediate,50,25,350,Blue,7.13352e-319,F,F,CORRECT,Draft,retinotopic.prs
RETINOTOPICTASK,Intermediate,50,26,350,Blue,7.13352e-319,F,F,CORRECT,Draft,retinotopic.prs
RETINOTOPICTASK,Intermediate,50,27,350,Red,7.13352e-319,J,J,CORRECT,Draft,retinotopic.prs
RETINOTOPICTASK,Intermediate,400,28,350,Red,7.13352e-319,J,J,CORRECT,Draft,retinotopic.prs
RETINOTOPICTASK,Retinotopic,400,29,350,Red,7.13352e-319,J,J,CORRECT,Draft,retinotopic.prs
RETINOTOPICTASK,Spatiotopic,50,30,350,Blue,7.13352e-319,F,F,CORRECT,Draft,retinotopic.prs
RETINOTOPICTASK,Retinotopic,50,31,350,Blue,7.13352e-319,F,F,CORRECT,Draft,retinotopic.prs
RETINOTOPICTASK,Spatiotopic,400,32,350,Blue,7.13352e-319,F,F,CORRECT,Draft,retinotopic.prs
RETINOTOPICTASK,Retinotopic,50,33,350,Blue,7.13352e-319,F,F,CORRECT,Draft,retinotopic.prs
RETINOTOPICTASK,Spatiotopic,400,34,400,Blue,7.13352e-319,F,F,CORRECT,Draft,retinotopic.prs
RETINOTOPICTASK,Intermediate,50,35,350,Red,7.13352e-319,J,J,CORRECT,Draft,retinotopic.prs
RETINOTOPICTASK,Spatiotopic,250,36,350,Red,7.13352e-319,J,J,CORRECT,Draft,retinotopic.prs
RETINOTOPICTASK,Spatiotopic,50,37,350,Red,7.13352e-319,J,J,CORRECT,Draft,retinotopic.prs
RETINOTOPICTASK,Intermediate,50,38,350,Blue,7.13352e-319,F,F,CORRECT,Draft,retinotopic.prs
RETINOTOPICTASK,Spatiotopic,50,39,350,Blue,7.13352e-319,F,F,CORRECT,Draft,retinotopic.prs
RETINOTOPICTASK,Spatiotopic,400,40,350,Blue,7.13352e-319,F,F,CORRECT,Draft,retinotopic.prs
RETINOTOPICTASK,Intermediate,250,41,350,Blue,7.13352e-319,F,F,CORRECT,Draft,retinotopic.prs
RETINOTOPICTASK,Intermediate,250,42,350,Blue,7.13352e-319,F,F,CORRECT,Draft,retinotopic.prs
RETINOTOPICTASK,Spatiotopic,250,43,350,Blue,7.13352e-319,F,F,CORRECT,Draft,retinotopic.prs
RETINOTOPICTASK,Spatiotopic,50,44,350,Blue,7.13352e-319,F,F,CORRECT,Draft,retinotopic.prs
RETINOTOPICTASK,Spatiotopic,400,45,400,Blue,7.13352e-319,F,F,CORRECT,Draft,retinotopic.prs
RETINOTOPICTASK,Intermediate,50,46,350,Blue,7.13352e-319,F,F,CORRECT,Draft,retinotopic.prs
RETINOTOPICTASK,Intermediate,50,47,350,Red,7.13352e-319,J,J,CORRECT,Draft,retinotopic.prs
RETINOTOPICTASK,Intermediate,400,48,350,Red,7.13352e-319,J,J,CORRECT,Draft,retinotopic.prs
RETINOTOPICTASK,Retinotopic,250,49,350,Red,7.13352e-319,J,J,CORRECT,Draft,retinotopic.prs
RETINOTOPICTASK,Spatiotopic,250,50,400,Red,7.13352e-319,J,J,CORRECT,Draft,retinotopic.prs
RETINOTOPICTASK,Intermediate,50,51,350,Red,7.13352e-319,J,J,CORRECT,Draft,retinotopic.prs
RETINOTOPICTASK,Intermediate,400,52,350,Red,7.13352e-319,J,J,CORRECT,Draft,retinotopic.prs
RETINOTOPICTASK,Intermediate,400,53,350,Red,7.13352e-319,J,J,CORRECT,Draft,retinotopic.prs
RETINOTOPICTASK,Spatiotopic,400,54,400,Blue,7.13352e-319,F,F,CORRECT,Draft,retinotopic.prs
RETINOTOPICTASK,Intermediate,400,55,350,Red,7.13352e-319,J,J,CORRECT,Draft,retinotopic.prs
RETINOTOPICTASK,Retinotopic,250,56,350,Red,7.13352e-319,J,J,CORRECT,Draft,retinotopic.prs
RETINOTOPICTASK,Spatiotopic,50,57,400,Blue,7.13352e-319,F,F,CORRECT,Draft,retinotopic.prs
RETINOTOPICTASK,Intermediate,50,58,350,Red,7.13352e-319,J,J,CORRECT,Draft,retinotopic.prs
RETINOTOPICTASK,Retinotopic,400,59,350,Red,7.13352e-319,J,J,CORRECT,Draft,retinotopic.prs
RETINOTOPICTASK,Intermediate,50,60,350,Blue,7.13352e-319,F,F,CORRECT,Draft,retinotopic.prs
RETINOTOPICTASK,Retinotopic,250,61,350,Red,7.13352e-319,J,J,CORRECT,Draft,retinotopic.prs
RETINOTOPICTASK,Retinotopic,400,62,350,Red,7.13352e-319,J,J,CORRECT,Draft,retinotopic.prs
RETINOTOPICTASK,Retinotopic,50,63,350,Red,7.13352e-319,J,J,CORRECT,Draft,retinotopic.prs
RETINOTOPICTASK,Spatiotopic,50,64,400,Blue,7.13352e-319,F,F,CORRECT,Draft,retinotopic.prs
RETINOTOPICTASK,Retinotopic,400,65,350,Red,7.13352e-319,J,J,CORRECT,Draft,retinotopic.prs
RETINOTOPICTASK,Spatiotopic,400,66,350,Red,7.13352e-319,J,J,CORRECT,Draft,retinotopic.prs
RETINOTOPICTASK,Intermediate,400,67,350,Red,7.13352e-319,J,J,CORRECT,Draft,retinotopic.prs
RETINOTOPICTASK,Retinotopic,50,68,350,Blue,7.13352e-319,F,F,CORRECT,Draft,retinotopic.prs
RETINOTOPICTASK,Retinotopic,50,69,350,Blue,7.13352e-319,F,F,CORRECT,Draft,retinotopic.prs
RETINOTOPICTASK,Intermediate,400,70,350,Red,7.13352e-319,J,J,CORRECT,Draft,retinotopic.prs
RETINOTOPICTASK,Spatiotopic,250,71,350,Red,7.13352e-319,J,J,CORRECT,Draft,retinotopic.prs
RETINOTOPICTASK,Spatiotopic,250,72,350,Blue,7.13352e-319,F,F,CORRECT,Draft,retinotopic.prs
RETINOTOPICTASK,Spatiotopic,250,73,350,Blue,7.13352e-319,F,F,CORRECT,Draft,retinotopic.prs
RETINOTOPICTASK,Spatiotopic,250,74,350,Blue,7.13352e-319,F,F,CORRECT,Draft,retinotopic.prs
RETINOTOPICTASK,Spatiotopic,400,75,400,Red,7.13352e-319,J,J,CORRECT,Draft,retinotopic.prs
RETINOTOPICTASK,Retinotopic,50,76,350,Blue,7.13352e-319,F,F,CORRECT,Draft,retinotopic.prs
RETINOTOPICTASK,Spatiotopic,250,77,400,Red,7.13352e-319,J,J,CORRECT,Draft,retinotopic.prs
RETINOTOPICTASK,Intermediate,400,78,350,Blue,7.13352e-319,F,F,CORRECT,Draft,retinotopic.prs
RETINOTOPICTASK,Intermediate,400,79,350,Blue,7.13352e-319,F,F,CORRECT,Draft,retinotopic.prs
RETINOTOPICTASK,Intermediate,50,80,350,Red,7.13352e-319,J,J,CORRECT,Draft,retinotopic.prs
RETINOTOPICTASK,Retinotopic,50,81,350,Red,7.13352e-319,J,J,CORRECT,Draft,retinotopic.prs
RETINOTOPICTASK,Intermediate,50,82,350,Red,7.13352e-319,J,J,CORRECT,Draft,retinotopic.prs
RETINOTOPICTASK,Intermediate,250,83,350,Red,7.13352e-319,J,J,CORRECT,Draft,retinotopic.prs
RETINOTOPICTASK,Intermediate,400,84,350,Red,7.13352e-319,J,J,CORRECT,Draft,retinotopic.prs
RETINOTOPICTASK,Retinotopic,50,85,350,Blue,7.13352e-319,F,F,CORRECT,Draft,retinotopic.prs
RETINOTOPICTASK,Retinotopic,250,86,350,Red,7.13352e-319,J,J,CORRECT,Draft,retinotopic.prs
RETINOTOPICTASK,Retinotopic,250,87,350,Blue,7.13352e-319,F,F,CORRECT,Draft,retinotopic.prs
RETINOTOPICTASK,Spatiotopic,250,88,350,Red,7.13352e-319,J,J,CORRECT,Draft,retinotopic.prs
RETINOTOPICTASK,Retinotopic,50,89,350,Blue,7.13352e-319,F,F,CORRECT,Draft,retinotopic.prs
RETINOTOPICTASK,Spatiotopic,250,90,400,Blue,7.13352e-319,F,F,CORRECT,Draft,retinotopic.prs
RETINOTOPICTASK,Intermediate,250,91,350,Red,7.13352e-319,J,J,CORRECT,Draft,retinotopic.prs
RETINOTOPICTASK,Retinotopic,400,92,350,Blue,7.13352e-319,F,F,CORRECT,Draft,retinotopic.prs
RETINOTOPICTASK,Intermediate,250,93,350,Blue,7.13352e-319,F,F,CORRECT,Draft,retinotopic.prs
RETINOTOPICTASK,Intermediate,250,94,350,Red,7.13352e-319,J,J,CORRECT,Draft,retinotopic.prs
RETINOTOPICTASK,Intermediate,250,95,350,Red,7.13352e-319,J,J,CORRECT,Draft,retinotopic.prs
RETINOTOPICTASK,Intermediate,250,96,350,Red,7.13352e-319,J,J,CORRECT,Draft,retinotopic.prs
RETINOTOPICTASK,Retinotopic,400,97,350,Red,7.13352e-319,J,J,CORRECT,Draft,retinotopic.prs
RETINOTOPICTASK,Spatiotopic,50,98,350,Red,7.13352e-319,J,J,CORRECT,Draft,retinotopic.prs
RETINOTOPICTASK,Spatiotopic,50,99,350,Red,7.13352e-319,J,J,CORRECT,Draft,retinotopic.prs
RETINOTOPICTASK,Spatiotopic,250,100,400,Red,7.13352e-319,J,J,CORRECT,Draft,retinotopic.prs
RETINOTOPICTASK,Intermediate,400,101,350,Blue,7.13352e-319,F,F,CORRECT,Draft,retinotopic.prs
RETINOTOPICTASK,Intermediate,250,102,350,Blue,7.13352e-319,F,F,CORRECT,Draft,retinotopic.prs
RETINOTOPICTASK,Retinotopic,400,103,350,Blue,7.13352e-319,F,F,CORRECT,Draft,retinotopic.prs
RETINOTOPICTASK,Intermediate,400,104,350,Blue,7.13352e-319,F,F,CORRECT,Draft,retinotopic.prs
RETINOTOPICTASK,Spatiotopic,250,105,350,Blue,7.13352e-319,F,F,CORRECT,Draft,retinotopic.prs
RETINOTOPICTASK,Intermediate,50,106,350,Red,7.13352e-319,J,J,CORRECT,Draft,retinotopic.prs
RETINOTOPICTASK,Spatiotopic,50,107,350,Red,7.13352e-319,J,J,CORRECT,Draft,retinotopic.prs
RETINOTOPICTASK,Intermediate,250,108,350,Red,7.13352e-319,J,J,CORRECT,Draft,retinotopic.prs
RETINOTOPICTASK,Spatiotopic,400,109,350,Blue,7.13352e-319,F,F,CORRECT,Draft,retinotopic.prs
RETINOTOPICTASK,Spatiotopic,50,110,350,Red,7.13352e-319,J,J,CORRECT,Draft,retinotopic.prs
RETINOTOPICTASK,Spatiotopic,400,111,350,Blue,7.13352e-319,F,F,CORRECT,Draft,retinotopic.prs
RETINOTOPICTASK,Intermediate,250,112,350,Blue,7.13352e-319,F,F,CORRECT,Draft,retinotopic.prs
RETINOTOPICTASK,Retinotopic,50,113,350,Red,7.13352e-319,J,J,CORRECT,Draft,retinotopic.prs
RETINOTOPICTASK,Intermediate,250,114,350,Red,7.13352e-319,J,J,CORRECT,Draft,retinotopic.prs
RETINOTOPICTASK,Spatiotopic,250,115,400,Red,7.13352e-319,J,J,CORRECT,Draft,retinotopic.prs
RETINOTOPICTASK,Retinotopic,250,116,350,Blue,7.13352e-319,F,F,CORRECT,Draft,retinotopic.prs
RETINOTOPICTASK,Retinotopic,50,117,350,Blue,7.13352e-319,F,F,CORRECT,Draft,retinotopic.prs
RETINOTOPICTASK,Spatiotopic,50,118,350,Blue,7.13352e-319,F,F,CORRECT,Draft,retinotopic.prs
RETINOTOPICTASK,Spatiotopic,250,119,350,Red,7.13352e-319,J,J,CORRECT,Draft,retinotopic.prs
RETINOTOPICTASK,Retinotopic,250,120,350,Blue,7.13352e-319,F,F,CORRECT,Draft,retinotopic.prs
RETINOTOPICTASK,Intermediate,250,121,350,Blue,7.13352e-319,F,F,CORRECT,Draft,retinotopic.prs
RETINOTOPICTASK,Spatiotopic,400,122,350,Red,7.13352e-319,J,J,CORRECT,Draft,retinotopic.prs
RETINOTOPICTASK,Retinotopic,50,123,350,Red,7.13352e-319,J,J,CORRECT,Draft,retinotopic.prs
RETINOTOPICTASK,Spatiotopic,250,124,350,Blue,7.13352e-319,F,F,CORRECT,Draft,retinotopic.prs
RETINOTOPICTASK,Intermediate,250,125,350,Red,7.13352e-319,J,J,CORRECT,Draft,retinotopic.prs
RETINOTOPICTASK,Spatiotopic,400,126,400,Red,7.13352e-319,J,J,CORRECT,Draft,retinotopic.prs
RETINOTOPICTASK,Intermediate,250,127,350,Red,7.13352e-319,J,J,CORRECT,Draft,retinotopic.prs
RETINOTOPICTASK,Intermediate,50,128,350,Red,7.13352e-319,J,J,CORRECT,Draft,retinotopic.prs
RETINOTOPICTASK,Spatiotopic,50,129,400,Red,7.13352e-319,J,J,CORRECT,Draft,retinotopic.prs
RETINOTOPICTASK,Spatiotopic,250,130,350,Red,7.13352e-319,J,J,CORRECT,Draft,retinotopic.prs
RETINOTOPICTASK,Retinotopic,400,131,350,Blue,7.13352e-319,F,F,CORRECT,Draft,retinotopic.prs
RETINOTOPICTASK,Spatiotopic,400,132,350,Red,7.13352e-319,J,J,CORRECT,Draft,retinotopic.prs
RETINOTOPICTASK,Spatiotopic,400,133,350,Blue,7.13352e-319,F,F,CORRECT,Draft,retinotopic.prs
RETINOTOPICTASK,Intermediate,400,134,350,Blue,7.13352e-319,F,F,CORRECT,Draft,retinotopic.prs
RETINOTOPICTASK,Spatiotopic,250,135,350,Blue,7.13352e-319,F,F,CORRECT,Draft,retinotopic.prs
RETINOTOPICTASK,Spatiotopic,400,136,350,Red,7.13352e-319,J,J,CORRECT,Draft,retinotopic.prs
RETINOTOPICTASK,Retinotopic,50,137,350,Red,7.13352e-319,J,J,CORRECT,Draft,retinotopic.prs
RETINOTOPICTASK,Intermediate,250,138,350,Red,7.13352e-319,J,J,CORRECT,Draft,retinotopic.prs
RETINOTOPICTASK,Intermediate,50,139,350,Red,7.13352e-319,J,J,CORRECT,Draft,retinotopic.prs
RETINOTOPICTASK,Retinotopic,50,140,350,Red,7.13352e-319,J,J,CORRECT,Draft,retinotopic.prs
RETINOTOPICTASK,Retinotopic,250,141,400,Red,7.13352e-319,J,J,CORRECT,Draft,retinotopic.prs
RETINOTOPICTASK,Spatiotopic,50,142,400,Red,7.13352e-319,J,J,CORRECT,Draft,retinotopic.prs
RETINOTOPICTASK,Spatiotopic,50,143,400,Blue,7.13352e-319,F,F,CORRECT,Draft,retinotopic.prs
RETINOTOPICTASK,Intermediate,50,144,350,Red,7.13352e-319,J,J,CORRECT,Draft,retinotopic.prs
RETINOTOPICTASK,Retinotopic,50,145,350,Blue,7.13352e-319,F,F,CORRECT,Draft,retinotopic.prs
RETINOTOPICTASK,Intermediate,250,146,350,Blue,7.13352e-319,F,F,CORRECT,Draft,retinotopic.prs
RETINOTOPICTASK,Retinotopic,250,147,350,Red,7.13352e-319,J,J,CORRECT,Draft,retinotopic.prs
RETINOTOPICTASK,Retinotopic,400,148,350,Blue,7.13352e-319,F,F,CORRECT,Draft,retinotopic.prs
RETINOTOPICTASK,Spatiotopic,400,149,400,Red,7.13352e-319,J,J,CORRECT,Draft,retinotopic.prs
RETINOTOPICTASK,Intermediate,50,150,350,Red,7.13352e-319,J,J,CORRECT,Draft,retinotopic.prs
RETINOTOPICTASK,Retinotopic,50,151,350,Red,7.13352e-319,J,J,CORRECT,Draft,retinotopic.prs
RETINOTOPICTASK,Spatiotopic,400,152,350,Red,7.13352e-319,J,J,CORRECT,Draft,retinotopic.prs
RETINOTOPICTASK,Spatiotopic,250,153,400,Red,7.13352e-319,J,J,CORRECT,Draft,retinotopic.prs
RETINOTOPICTASK,Retinotopic,250,154,350,Blue,7.13352e-319,F,F,CORRECT,Draft,retinotopic.prs
RETINOTOPICTASK,Retinotopic,50,155,350,Red,7.13352e-319,J,J,CORRECT,Draft,retinotopic.prs
RETINOTOPICTASK,Spatiotopic,400,156,400,Blue,7.13352e-319,F,F,CORRECT,Draft,retinotopic.prs
RETINOTOPICTASK,Spatiotopic,400,157,400,Blue,7.13352e-319,F,F,CORRECT,Draft,retinotopic.prs
RETINOTOPICTASK,Intermediate,250,158,350,Blue,7.13352e-319,F,F,CORRECT,Draft,retinotopic.prs
RETINOTOPICTASK,Spatiotopic,400,159,400,Blue,7.13352e-319,F,F,CORRECT,Draft,retinotopic.prs
RETINOTOPICTASK,Spatiotopic,400,160,400,Blue,7.13352e-319,F,F,CORRECT,Draft,retinotopic.prs
RETINOTOPICTASK,Spatiotopic,250,161,350,Blue,7.13352e-319,F,F,CORRECT,Draft,retinotopic.prs
RETINOTOPICTASK,Retinotopic,50,162,350,Red,7.13352e-319,J,J,CORRECT,Draft,retinotopic.prs
RETINOTOPICTASK,Retinotopic,400,163,350,Red,7.13352e-319,J,J,CORRECT,Draft,retinotopic.prs
RETINOTOPICTASK,Retinotopic,50,164,350,Red,7.13352e-319,J,J,CORRECT,Draft,retinotopic.prs
RETINOTOPICTASK,Retinotopic,50,165,400,Red,7.13352e-319,J,J,CORRECT,Draft,retinotopic.prs
RETINOTOPICTASK,Intermediate,250,166,350,Blue,7.13352e-319,F,F,CORRECT,Draft,retinotopic.prs
RETINOTOPICTASK,Spatiotopic,400,167,350,Blue,7.13352e-319,F,F,CORRECT,Draft,retinotopic.prs
RETINOTOPICTASK,Intermediate,50,168,350,Red,7.13352e-319,J,J,CORRECT,Draft,retinotopic.prs
RETINOTOPICTASK,Intermediate,400,169,350,Blue,7.13352e-319,F,F,CORRECT,Draft,retinotopic.prs
RETINOTOPICTASK,Retinotopic,250,170,350,Red,7.13352e-319,J,J,CORRECT,Draft,retinotopic.prs
RETINOTOPICTASK,Retinotopic,250,171,350,Red,7.13352e-319,J,J,CORRECT,Draft,retinotopic.prs
RETINOTOPICTASK,Retinotopic,250,172,350,Red,7.13352e-319,J,J,CORRECT,Draft,retinotopic.prs
RETINOTOPICTASK,Intermediate,400,173,350,Blue,7.13352e-319,F,F,CORRECT,Draft,retinotopic.prs
RETINOTOPICTASK,Intermediate,400,174,350,Red,7.13352e-319,J,J,CORRECT,Draft,retinotopic.prs
RETINOTOPICTASK,Retinotopic,400,175,350,Red,7.13352e-319,J,J,CORRECT,Draft,retinotopic.prs
RETINOTOPICTASK,Intermediate,400,176,350,Red,7.13352e-319,J,J,CORRECT,Draft,retinotopic.prs
RETINOTOPICTASK,Intermediate,50,177,350,Red,7.13352e-319,J,J,CORRECT,Draft,retinotopic.prs
RETINOTOPICTASK,Spatiotopic,400,178,350,Blue,7.13352e-319,F,F,CORRECT,Draft,retinotopic.prs
RETINOTOPICTASK,Spatiotopic,250,179,350,Red,7.13352e-319,J,J,CORRECT,Draft,retinotopic.prs
RETINOTOPICTASK,Retinotopic,250,180,350,Blue,7.13352e-319,F,F,CORRECT,Draft,retinotopic.prs
RETINOTOPICTASK,Retinotopic,250,181,350,Blue,7.13352e-319,F,F,CORRECT,Draft,retinotopic.prs
RETINOTOPICTASK,Intermediate,50,182,350,Blue,7.13352e-319,F,F,CORRECT,Draft,retinotopic.prs
RETINOTOPICTASK,Retinotopic,400,183,400,Red,7.13352e-319,J,J,CORRECT,Draft,retinotopic.prs
RETINOTOPICTASK,Retinotopic,50,184,350,Red,7.13352e-319,J,J,CORRECT,Draft,retinotopic.prs
RETINOTOPICTASK,Retinotopic,50,185,350,Red,7.13352e-319,J,J,CORRECT,Draft,retinotopic.prs
RETINOTOPICTASK,Intermediate,400,186,350,Blue,7.13352e-319,F,F,CORRECT,Draft,retinotopic.prs
RETINOTOPICTASK,Spatiotopic,400,187,400,Blue,7.13352e-319,F,F,CORRECT,Draft,retinotopic.prs
RETINOTOPICTASK,Retinotopic,250,188,350,Red,7.13352e-319,J,J,CORRECT,Draft,retinotopic.prs
RETINOTOPICTASK,Intermediate,250,189,350,Red,7.13352e-319,J,J,CORRECT,Draft,retinotopic.prs
RETINOTOPICTASK,Spatiotopic,250,190,350,Blue,7.13352e-319,F,F,CORRECT,Draft,retinotopic.prs
RETINOTOPICTASK,Intermediate,250,191,350,Red,7.13352e-319,J,J,CORRECT,Draft,retinotopic.prs
RETINOTOPICTASK,Retinotopic,400,192,350,Blue,7.13352e-319,F,F,CORRECT,Draft,retinotopic.prs
RETINOTOPICTASK,Intermediate,400,193,350,Blue,7.13352e-319,F,F,CORRECT,Draft,retinotopic.prs
RETINOTOPICTASK,Intermediate,400,194,350,Blue,7.13352e-319,F,F,CORRECT,Draft,retinotopic.prs
RETINOTOPICTASK,Intermediate,50,195,350,Red,7.13352e-319,J,J,CORRECT,Draft,retinotopic.prs
RETINOTOPICTASK,Retinotopic,250,196,350,Red,7.13352e-319,J,J,CORRECT,Draft,retinotopic.prs
RETINOTOPICTASK,Spatiotopic,50,197,350,Red,7.13352e-319,J,J,CORRECT,Draft,retinotopic.prs
RETINOTOPICTASK,Retinotopic,400,198,350,Red,7.13352e-319,J,J,CORRECT,Draft,retinotopic.prs
RETINOTOPICTASK,Retinotopic,250,199,350,Red,7.13352e-319,J,J,CORRECT,Draft,retinotopic.prs
RETINOTOPICTASK,Retinotopic,400,200,350,Red,7.13352e-319,J,J,CORRECT,Draft,retinotopic.prs
RETINOTOPICTASK,Retinotopic,400,1,524,Red,7.13352e-319,J,J,CORRECT,Draft,retinotopic.prs
RETINOTOPICTASK,Spatiotopic,400,2,350,Red,7.13352e-319,J,J,CORRECT,Draft,retinotopic.prs
RETINOTOPICTASK,Retinotopic,50,3,350,Red,7.13352e-319,J,J,CORRECT,Draft,retinotopic.prs
RETINOTOPICTASK,Retinotopic,400,4,374,Blue,7.13352e-319,F,F,CORRECT,Draft,retinotopic.prs
RETINOTOPICTASK,Retinotopic,250,5,350,Blue,7.13352e-319,F,F,CORRECT,Draft,retinotopic.prs
RETINOTOPICTASK,Retinotopic,400,6,350,Blue,7.13352e-319,F,F,CORRECT,Draft,retinotopic.prs
RETINOTOPICTASK,Retinotopic,50,7,350,Blue,7.13352e-319,F,F,CORRECT,Draft,retinotopic.prs
RETINOTOPICTASK,Intermediate,400,8,350,Blue,7.13352e-319,F,F,CORRECT,Draft,retinotopic.prs
RETINOTOPICTASK,Intermediate,400,9,350,Blue,7.13352e-319,F,F,CORRECT,Draft,retinotopic.prs
RETINOTOPICTASK,Intermediate,50,10,350,Blue,7.13352e-319,F,F,CORRECT,Draft,retinotopic.prs
RETINOTOPICTASK,Intermediate,250,11,350,Red,7.13352e-319,J,J,CORRECT,Draft,retinotopic.prs
RETINOTOPICTASK,Spatiotopic,250,12,350,Blue,7.13352e-319,F,F,CORRECT,Draft,retinotopic.prs
RETINOTOPICTASK,Spatiotopic,400,13,350,Red,7.13352e-319,J,J,CORRECT,Draft,retinotopic.prs
RETINOTOPICTASK,Retinotopic,400,14,350,Red,7.13352e-319,J,J,CORRECT,Draft,retinotopic.prs
RETINOTOPICTASK,Retinotopic,50,15,350,Red,7.13352e-319,J,J,CORRECT,Draft,retinotopic.prs
RETINOTOPICTASK,Retinotopic,250,16,350,Blue,7.13352e-319,F,F,CORRECT,Draft,retinotopic.prs
RETINOTOPICTASK,Retinotopic,400,17,350,Red,7.13352e-319,J,J,CORRECT,Draft,retinotopic.prs
RETINOTOPICTASK,Spatiotopic,250,18,400,Blue,7.13352e-319,F,F,CORRECT,Draft,retinotopic.prs
RETINOTOPICTASK,Retinotopic,50,19,350,Blue,7.13352e-319,F,F,CORRECT,Draft,retinotopic.prs
RETINOTOPICTASK,Intermediate,50,20,350,Red,7.13352e-319,J,J,CORRECT,Draft,retinotopic.prs
RETINOTOPICTASK,Intermediate,50,21,350,Red,7.13352e-319,J,J,CORRECT,Draft,retinotopic.prs
RETINOTOPICTASK,Retinotopic,400,22,400,Blue,7.13352e-319,F,F,CORRECT,Draft,retinotopic.prs
RETINOTOPICTASK,Spatiotopic,250,23,400,Blue,7.13352e-319,F,F,CORRECT,Draft,retinotopic.prs
RETINOTOPICTASK,Intermediate,250,24,350,Red,7.13352e-319,J,J,CORRECT,Draft,retinotopic.prs
RETINOTOPICTASK,Intermediate,400,25,350,Red,7.13352e-319,J,J,CORRECT,Draft,retinotopic.prs
RETINOTOPICTASK,Retinotopic,50,26,350,Blue,7.13352e-319,F,F,CORRECT,Draft,retinotopic.prs
RETINOTOPICTASK,Retinotopic,400,27,350,Blue,7.13352e-319,F,F,CORRECT,Draft,retinotopic.prs
RETINOTOPICTASK,Retinotopic,250,28,350,Blue,7.13352e-319,F,F,CORRECT,Draft,retinotopic.prs
RETINOTOPICTASK,Retinotopic,400,29,350,Red,7.13352e-319,J,J,CORRECT,Draft,retinotopic.prs
RETINOTOPICTASK,Intermediate,250,30,350,Red,7.13352e-319,J,J,CORRECT,Draft,retinotopic.prs
RETINOTOPICTASK,Intermediate,50,31,350,Red,7.13352e-319,J,J,CORRECT,Draft,retinotopic.prs
RETINOTOPICTASK,Intermediate,250,32,350,Blue,7.13352e-319,F,F,CORRECT,Draft,retinotopic.prs
RETINOTOPICTASK,Spatiotopic,50,33,350,Red,7.13352e-319,J,J,CORRECT,Draft,retinotopic.prs
RETINOTOPICTASK,Retinotopic,250,34,350,Blue,7.13352e-319,F,F,CORRECT,Draft,retinotopic.prs
RETINOTOPICTASK,Retinotopic,50,35,400,Blue,7.13352e-319,F,F,CORRECT,Draft,retinotopic.prs
RETINOTOPICTASK,Retinotopic,250,36,350,Blue,7.13352e-319,F,F,CORRECT,Draft,retinotopic.prs
RETINOTOPICTASK,Retinotopic,400,37,350,Blue,7.13352e-319,F,F,CORRECT,Draft,retinotopic.prs
RETINOTOPICTASK,Intermediate,250,38,350,Red,7.13352e-319,J,J,CORRECT,Draft,retinotopic.prs
RETINOTOPICTASK,Spatiotopic,250,39,400,Red,7.13352e-319,J,J,CORRECT,Draft,retinotopic.prs
RETINOTOPICTASK,Retinotopic,250,40,350,Blue,7.13352e-319,F,F,CORRECT,Draft,retinotopic.prs
RETINOTOPICTASK,Intermediate,250,41,350,Blue,7.13352e-319,F,F,CORRECT,Draft,retinotopic.prs
RETINOTOPICTASK,Spatiotopic,400,42,400,Red,7.13352e-319,J,J,CORRECT,Draft,retinotopic.prs
RETINOTOPICTASK,Spatiotopic,400,43,350,Blue,7.13352e-319,F,F,CORRECT,Draft,retinotopic.prs
RETINOTOPICTASK,Retinotopic,250,44,350,Red,7.13352e-319,J,J,CORRECT,Draft,retinotopic.prs
RETINOTOPICTASK,Intermediate,250,45,350,Blue,7.13352e-319,F,F,CORRECT,Draft,retinotopic.prs
RETINOTOPICTASK,Intermediate,50,46,350,Red,7.13352e-319,J,J,CORRECT,Draft,retinotopic.prs
RETINOTOPICTASK,Retinotopic,250,47,350,Blue,7.13352e-319,F,F,CORRECT,Draft,retinotopic.prs
RETINOTOPICTASK,Retinotopic,250,48,350,Red,7.13352e-319,J,J,CORRECT,Draft,retinotopic.prs
RETINOTOPICTASK,Spatiotopic,250,49,350,Red,7.13352e-319,J,J,CORRECT,Draft,retinotopic.prs
RETINOTOPICTASK,Intermediate,400,50,350,Red,7.13352e-319,J,J,CORRECT,Draft,retinotopic.prs
RETINOTOPICTASK,Retinotopic,50,51,350,Red,7.13352e-319,J,J,CORRECT,Draft,retinotopic.prs
RETINOTOPICTASK,Intermediate,50,52,350,Red,7.13352e-319,J,J,CORRECT,Draft,retinotopic.prs
RETINOTOPICTASK,Retinotopic,50,53,400,Blue,7.13352e-319,F,F,CORRECT,Draft,retinotopic.prs
RETINOTOPICTASK,Intermediate,250,54,350,Red,7.13352e-319,J,J,CORRECT,Draft,retinotopic.prs
RETINOTOPICTASK,Retinotopic,50,55,350,Blue,7.13352e-319,F,F,CORRECT,Draft,retinotopic.prs
RETINOTOPICTASK,Retinotopic,250,56,350,Blue,7.13352e-319,F,F,CORRECT,Draft,retinotopic.prs
RETINOTOPICTASK,Intermediate,50,57,350,Blue,7.13352e-319,F,F,CORRECT,Draft,retinotopic.prs
RETINOTOPICTASK,Intermediate,400,58,350,Blue,7.13352e-319,F,F,CORRECT,Draft,retinotopic.prs
RETINOTOPICTASK,Retinotopic,400,59,350,Blue,7.13352e-319,F,F,CORRECT,Draft,retinotopic.prs
RETINOTOPICTASK,Retinotopic,250,60,350,Blue,7.13352e-319,F,F,CORRECT,Draft,retinotopic.prs
RETINOTOPICTASK,Retinotopic,400,61,350,Red,7.13352e-319,J,J,CORRECT,Draft,retinotopic.prs
RETINOTOPICTASK,Intermediate,50,62,350,Red,7.13352e-319,J,J,CORRECT,Draft,retinotopic.prs
RETINOTOPICTASK,Intermediate,250,63,350,Blue,7.13352e-319,F,F,CORRECT,Draft,retinotopic.prs
RETINOTOPICTASK,Retinotopic,250,64,350,Blue,7.13352e-319,F,F,CORRECT,Draft,retinotopic.prs
RETINOTOPICTASK,Intermediate,250,65,350,Blue,7.13352e-319,F,F,CORRECT,Draft,retinotopic.prs
RETINOTOPICTASK,Retinotopic,400,66,350,Red,7.13352e-319,J,J,CORRECT,Draft,retinotopic.prs
RETINOTOPICTASK,Intermediate,250,67,350,Blue,7.13352e-319,F,F,CORRECT,Draft,retinotopic.prs
RETINOTOPICTASK,Intermediate,50,68,350,Blue,7.13352e-319,F,F,CORRECT,Draft,retinotopic.prs
RETINOTOPICTASK,Intermediate,400,69,350,Red,7.13352e-319,J,J,CORRECT,Draft,retinotopic.prs
RETINOTOPICTASK,Spatiotopic,250,70,400,Blue,7.13352e-319,F,F,CORRECT,Draft,retinotopic.prs
RETINOTOPICTASK,Spatiotopic,50,71,350,Blue,7.13352e-319,F,F,CORRECT,Draft,retinotopic.prs
RETINOTOPICTASK,Spatiotopic,50,72,350,Red,7.13352e-319,J,J,CORRECT,Draft,retinotopic.prs
RETINOTOPICTASK,Intermediate,400,73,350,Red,7.13352e-319,J,J,CORRECT,Draft,retinotopic.prs
RETINOTOPICTASK,Retinotopic,250,74,350,Blue,7.13352e-319,F,F,CORRECT,Draft,retinotopic.prs
RETINOTOPICTASK,Intermediate,50,75,350,Blue,7.13352e-319,F,F,CORRECT,Draft,retinotopic.prs
RETINOTOPICTASK,Spatiotopic,50,76,350,Red,7.13352e-319,J,J,CORRECT,Draft,retinotopic.prs
RETINOTOPICTASK,Spatiotopic,400,77,400,Blue,7.13352e-319,F,F,CORRECT,Draft,retinotopic.prs
RETINOTOPICTASK,Retinotopic,400,78,350,Blue,7.13352e-319,F,F,CORRECT,Draft,retinotopic.prs
RETINOTOPICTASK,Spatiotopic,250,79,400,Red,7.13352e-319,J,J,CORRECT,Draft,retinotopic.prs
RETINOTOPICTASK,Retinotopic,50,80,350,Blue,7.13352e-319,F,F,CORRECT,Draft,retinotopic.prs
RETINOTOPICTASK,Spatiotopic,400,81,400,Blue,7.13352e-319,F,F,CORRECT,Draft,retinotopic.prs
RETINOTOPICTASK,Retinotopic,400,82,350,Blue,7.13352e-319,F,F,CORRECT,Draft,retinotopic.prs
RETINOTOPICTASK,Spatiotopic,250,83,400,Red,7.13352e-319,J,J,CORRECT,Draft,retinotopic.prs
RETINOTOPICTASK,Spatiotopic,50,84,350,Red,7.13352e-319,J,J,CORRECT,Draft,retinotopic.prs
RETINOTOPICTASK,Intermediate,400,85,350,Blue,7.13352e-319,F,F,CORRECT,Draft,retinotopic.prs
RETINOTOPICTASK,Retinotopic,250,86,350,Red,7.13352e-319,J,J,CORRECT,Draft,retinotopic.prs
RETINOTOPICTASK,Intermediate,50,87,350,Blue,7.13352e-319,F,F,CORRECT,Draft,retinotopic.prs
RETINOTOPICTASK,Spatiotopic,50,88,400,Blue,7.13352e-319,F,F,CORRECT,Draft,retinotopic.prs
RETINOTOPICTASK,Spatiotopic,400,89,350,Blue,7.13352e-319,F,F,CORRECT,Draft,retinotopic.prs
RETINOTOPICTASK,Intermediate,400,90,350,Red,7.13352e-319,J,J,CORRECT,Draft,retinotopic.prs
RETINOTOPICTASK,Spatiotopic,250,91,400,Red,7.13352e-319,J,J,CORRECT,Draft,retinotopic.prs
RETINOTOPICTASK,Retinotopic,400,92,350,Blue,7.13352e-319,F,F,CORRECT,Draft,retinotopic.prs
RETINOTOPICTASK,Spatiotopic,250,93,350,Blue,7.13352e-319,F,F,CORRECT,Draft,retinotopic.prs
RETINOTOPICTASK,Spatiotopic,50,94,350,Red,7.13352e-319,J,J,CORRECT,Draft,retinotopic.prs
RETINOTOPICTASK,Retinotopic,400,95,350,Blue,7.13352e-319,F,F,CORRECT,Draft,retinotopic.prs
RETINOTOPICTASK,Retinotopic,400,96,350,Red,7.13352e-319,J,J,CORRECT,Draft,retinotopic.prs
RETINOTOPICTASK,Intermediate,250,97,350,Blue,7.13352e-319,F,F,CORRECT,Draft,retinotopic.prs
RETINOTOPICTASK,Retinotopic,400,98,350,Blue,7.13352e-319,F,F,CORRECT,Draft,retinotopic.prs
RETINOTOPICTASK,Retinotopic,50,99,350,Blue,7.13352e-319,F,F,CORRECT,Draft,retinotopic.prs
RETINOTOPICTASK,Spatiotopic,50,100,350,Red,7.13352e-319,J,J,CORRECT,Draft,retinotopic.prs
RETINOTOPICTASK,Intermediate,250,101,350,Red,7.13352e-319,J,J,CORRECT,Draft,retinotopic.prs
RETINOTOPICTASK,Spatiotopic,400,102,400,Blue,7.13352e-319,F,F,CORRECT,Draft,retinotopic.prs
RETINOTOPICTASK,Spatiotopic,250,103,350,Red,7.13352e-319,J,J,CORRECT,Draft,retinotopic.prs
RETINOTOPICTASK,Retinotopic,250,104,350,Blue,7.13352e-319,F,F,CORRECT,Draft,retinotopic.prs
RETINOTOPICTASK,Spatiotopic,50,105,350,Red,7.13352e-319,J,J,CORRECT,Draft,retinotopic.prs
RETINOTOPICTASK,Spatiotopic,400,106,350,Red,7.13352e-319,J,J,CORRECT,Draft,retinotopic.prs
RETINOTOPICTASK,Spatiotopic,400,107,350,Red,7.13352e-319,J,J,CORRECT,Draft,retinotopic.prs
RETINOTOPICTASK,Spatiotopic,400,108,400,Blue,7.13352e-319,F,F,CORRECT,Draft,retinotopic.prs
RETINOTOPICTASK,Spatiotopic,400,109,350,Red,7.13352e-319,J,J,CORRECT,Draft,retinotopic.prs
RETINOTOPICTASK,Retinotopic,50,110,350,Blue,7.13352e-319,F,F,CORRECT,Draft,retinotopic.prs
RETINOTOPICTASK,Spatiotopic,50,111,350,Blue,7.13352e-319,F,F,CORRECT,Draft,retinotopic.prs
RETINOTOPICTASK,Retinotopic,400,112,350,Red,7.13352e-319,J,J,CORRECT,Draft,retinotopic.prs
RETINOTOPICTASK,Retinotopic,50,113,350,Blue,7.13352e-319,F,F,CORRECT,Draft,retinotopic.prs
RETINOTOPICTASK,Retinotopic,50,114,350,Red,7.13352e-319,J,J,CORRECT,Draft,retinotopic.prs
RETINOTOPICTASK,Retinotopic,250,115,350,Blue,7.13352e-319,F,F,CORRECT,Draft,retinotopic.prs
RETINOTOPICTASK,Intermediate,400,116,350,Blue,7.13352e-319,F,F,CORRECT,Draft,retinotopic.prs
RETINOTOPICTASK,Intermediate,50,117,350,Red,7.13352e-319,J,J,CORRECT,Draft,retinotopic.prs
RETINOTOPICTASK,Intermediate,250,118,350,Red,7.13352e-319,J,J,CORRECT,Draft,retinotopic.prs
RETINOTOPICTASK,Intermediate,50,119,350,Blue,7.13352e-319,F,F,CORRECT,Draft,retinotopic.prs
RETINOTOPICTASK,Intermediate,250,120,350,Blue,7.13352e-319,F,F,CORRECT,Draft,retinotopic.prs
RETINOTOPICTASK,Spatiotopic,50,121,350,Red,7.13352e-319,J,J,CORRECT,Draft,retinotopic.prs
RETINOTOPICTASK,Intermediate,400,122,350,Blue,7.13352e-319,F,F,CORRECT,Draft,retinotopic.prs
RETINOTOPICTASK,Intermediate,50,123,350,Red,7.13352e-319,J,J,CORRECT,Draft,retinotopic.prs
RETINOTOPICTASK,Spatiotopic,50,124,350,Blue,7.13352e-319,F,F,CORRECT,Draft,retinotopic.prs
RETINOTOPICTASK,Intermediate,400,125,350,Red,7.13352e-319,J,J,CORRECT,Draft,retinotopic.prs
RETINOTOPICTASK,Intermediate,50,126,350,Red,7.13352e-319,J,J,CORRECT,Draft,retinotopic.prs
RETINOTOPICTASK,Spatiotopic,400,127,350,Red,7.13352e-319,J,J,CORRECT,Draft,retinotopic.prs
RETINOTOPICTASK,Intermediate,50,128,350,Red,7.13352e-319,J,J,CORRECT,Draft,retinotopic.prs
RETINOTOPICTASK,Spatiotopic,50,129,400,Blue,7.13352e-319,F,F,CORRECT,Draft,retinotopic.prs
RETINOTOPICTASK,Spatiotopic,400,130,350,Blue,7.13352e-319,F,F,CORRECT,Draft,retinotopic.prs
RETINOTOPICTASK,Retinotopic,400,131,350,Blue,7.13352e-319,F,F,CORRECT,Draft,retinotopic.prs
RETINOTOPICTASK,Retinotopic,400,132,400,Blue,7.13352e-319,F,F,CORRECT,Draft,retinotopic.prs
RETINOTOPICTASK,Retinotopic,50,133,350,Blue,7.13352e-319,F,F,CORRECT,Draft,retinotopic.prs
RETINOTOPICTASK,Intermediate,250,134,350,Blue,7.13352e-319,F,F,CORRECT,Draft,retinotopic.prs
RETINOTOPICTASK,Intermediate,50,135,350,Red,7.13352e-319,J,J,CORRECT,Draft,retinotopic.prs
RETINOTOPICTASK,Spatiotopic,250,136,350,Blue,7.13352e-319,F,F,CORRECT,Draft,retinotopic.prs
RETINOTOPICTASK,Intermediate,250,137,350,Blue,7.13352e-319,F,F,CORRECT,Draft,retinotopic.prs
RETINOTOPICTASK,Spatiotopic,250,138,350,Red,7.13352e-319,J,J,CORRECT,Draft,retinotopic.prs
RETINOTOPICTASK,Retinotopic,400,139,350,Red,7.13352e-319,J,J,CORRECT,Draft,retinotopic.prs
RETINOTOPICTASK,Retinotopic,400,140,350,Red,7.13352e-319,J,J,CORRECT,Draft,retinotopic.prs
RETINOTOPICTASK,Intermediate,400,141,350,Red,7.13352e-319,J,J,CORRECT,Draft,retinotopic.prs
RETINOTOPICTASK,Retinotopic,400,142,350,Blue,7.13352e-319,F,F,CORRECT,Draft,retinotopic.prs
RETINOTOPICTASK,Spatiotopic,250,143,350,Red,7.13352e-319,J,J,CORRECT,Draft,retinotopic.prs
RETINOTOPICTASK,Intermediate,400,144,350,Red,7.13352e-319,J,J,CORRECT,Draft,retinotopic.prs
RETINOTOPICTASK,Intermediate,400,145,350,Blue,7.13352e-319,F,F,CORRECT,Draft,retinotopic.prs
RETINOTOPICTASK,Intermediate,400,146,350,Red,7.13352e-319,J,J,CORRECT,Draft,retinotopic.prs
RETINOTOPICTASK,Spatiotopic,50,147,400,Red,7.13352e-319,J,J,CORRECT,Draft,retinotopic.prs
RETINOTOPICTASK,Spatiotopic,400,148,350,Red,7.13352e-319,J,J,CORRECT,Draft,retinotopic.prs
RETINOTOPICTASK,Retinotopic,250,149,350,Blue,7.13352e-319,F,F,CORRECT,Draft,retinotopic.prs
RETINOTOPICTASK,Intermediate,250,150,350,Blue,7.13352e-319,F,F,CORRECT,Draft,retinotopic.prs
RETINOTOPICTASK,Spatiotopic,50,151,400,Blue,7.13352e-319,F,F,CORRECT,Draft,retinotopic.prs
RETINOTOPICTASK,Intermediate,250,152,350,Blue,7.13352e-319,F,F,CORRECT,Draft,retinotopic.prs
RETINOTOPICTASK,Retinotopic,400,153,350,Red,7.13352e-319,J,J,CORRECT,Draft,retinotopic.prs
RETINOTOPICTASK,Retinotopic,50,154,350,Red,7.13352e-319,J,J,CORRECT,Draft,retinotopic.prs
RETINOTOPICTASK,Intermediate,50,155,350,Red,7.13352e-319,J,J,CORRECT,Draft,retinotopic.prs
RETINOTOPICTASK,Spatiotopic,50,156,350,Red,7.13352e-319,J,J,CORRECT,Draft,retinotopic.prs
RETINOTOPICTASK,Intermediate,250,157,350,Blue,7.13352e-319,F,F,CORRECT,Draft,retinotopic.prs
RETINOTOPICTASK,Retinotopic,400,158,350,Red,7.13352e-319,J,J,CORRECT,Draft,retinotopic.prs
RETINOTOPICTASK,Spatiotopic,50,159,400,Red,7.13352e-319,J,J,CORRECT,Draft,retinotopic.prs
RETINOTOPICTASK,Spatiotopic,400,160,400,Red,7.13352e-319,J,J,CORRECT,Draft,retinotopic.prs
RETINOTOPICTASK,Retinotopic,50,161,350,Blue,7.13352e-319,F,F,CORRECT,Draft,retinotopic.prs
RETINOTOPICTASK,Spatiotopic,50,162,400,Blue,7.13352e-319,F,F,CORRECT,Draft,retinotopic.prs
RETINOTOPICTASK,Spatiotopic,50,163,400,Red,7.13352e-319,J,J,CORRECT,Draft,retinotopic.prs
RETINOTOPICTASK,Spatiotopic,50,164,400,Red,7.13352e-319,J,J,CORRECT,Draft,retinotopic.prs
RETINOTOPICTASK,Spatiotopic,50,165,350,Red,7.13352e-319,J,J,CORRECT,Draft,retinotopic.prs
RETINOTOPICTASK,Spatiotopic,50,166,350,Red,7.13352e-319,J,J,CORRECT,Draft,retinotopic.prs
RETINOTOPICTASK,Intermediate,50,167,350,Red,7.13352e-319,J,J,CORRECT,Draft,retinotopic.prs
RETINOTOPICTASK,Spatiotopic,50,168,350,Blue,7.13352e-319,F,F,CORRECT,Draft,retinotopic.prs
RETINOTOPICTASK,Retinotopic,400,169,350,Blue,7.13352e-319,F,F,CORRECT,Draft,retinotopic.prs
RETINOTOPICTASK,Intermediate,250,170,350,Red,7.13352e-319,J,J,CORRECT,Draft,retinotopic.prs
RETINOTOPICTASK,Spatiotopic,50,171,350,Red,7.13352e-319,J,J,CORRECT,Draft,retinotopic.prs
RETINOTOPICTASK,Retinotopic,400,172,350,Red,7.13352e-319,J,J,CORRECT,Draft,retinotopic.prs
RETINOTOPICTASK,Intermediate,50,173,350,Red,7.13352e-319,J,J,CORRECT,Draft,retinotopic.prs
RETINOTOPICTASK,Intermediate,250,174,350,Blue,7.13352e-319,F,F,CORRECT,Draft,retinotopic.prs
RETINOTOPICTASK,Spatiotopic,400,175,350,Red,7.13352e-319,J,J,CORRECT,Draft,retinotopic.prs
RETINOTOPICTASK,Spatiotopic,400,176,400,Blue,7.13352e-319,F,F,CORRECT,Draft,retinotopic.prs
RETINOTOPICTASK,Spatiotopic,400,177,350,Red,7.13352e-319,J,J,CORRECT,Draft,retinotopic.prs
RETINOTOPICTASK,Retinotopic,250,178,350,Red,7.13352e-319,J,J,CORRECT,Draft,retinotopic.prs
RETINOTOPICTASK,Spatiotopic,400,179,400,Red,7.13352e-319,J,J,CORRECT,Draft,retinotopic.prs
RETINOTOPICTASK,Retinotopic,400,180,350,Blue,7.13352e-319,F,F,CORRECT,Draft,retinotopic.prs
RETINOTOPICTASK,Spatiotopic,50,181,350,Red,7.13352e-319,J,J,CORRECT,Draft,retinotopic.prs
RETINOTOPICTASK,Retinotopic,400,182,350,Red,7.13352e-319,J,J,CORRECT,Draft,retinotopic.prs
RETINOTOPICTASK,Spatiotopic,50,183,350,Red,7.13352e-319,J,J,CORRECT,Draft,retinotopic.prs
RETINOTOPICTASK,Retinotopic,50,184,350,Red,7.13352e-319,J,J,CORRECT,Draft,retinotopic.prs
RETINOTOPICTASK,Intermediate,400,185,350,Blue,7.13352e-319,F,F,CORRECT,Draft,retinotopic.prs
RETINOTOPICTASK,Retinotopic,400,186,350,Red,7.13352e-319,J,J,CORRECT,Draft,retinotopic.prs
RETINOTOPICTASK,Spatiotopic,250,187,400,Red,7.13352e-319,J,J,CORRECT,Draft,retinotopic.prs
RETINOTOPICTASK,Retinotopic,400,188,350,Blue,7.13352e-319,F,F,CORRECT,Draft,retinotopic.prs
RETINOTOPICTASK,Spatiotopic,250,189,350,Red,7.13352e-319,J,J,CORRECT,Draft,retinotopic.prs
RETINOTOPICTASK,Intermediate,250,190,350,Blue,7.13352e-319,F,F,CORRECT,Draft,retinotopic.prs
RETINOTOPICTASK,Retinotopic,400,191,350,Blue,7.13352e-319,F,F,CORRECT,Draft,retinotopic.prs
RETINOTOPICTASK,Spatiotopic,50,192,400,Red,7.13352e-319,J,J,CORRECT,Draft,retinotopic.prs
RETINOTOPICTASK,Retinotopic,400,193,350,Blue,7.13352e-319,F,F,CORRECT,Draft,retinotopic.prs
RETINOTOPICTASK,Retinotopic,250,194,350,Red,7.13352e-319,J,J,CORRECT,Draft,retinotopic.prs
RETINOTOPICTASK,Retinotopic,400,195,350,Blue,7.13352e-319,F,F,CORRECT,Draft,retinotopic.prs
RETINOTOPICTASK,Spatiotopic,50,196,350,Blue,7.13352e-319,F,F,CORRECT,Draft,retinotopic.prs
RETINOTOPICTASK,Spatiotopic,50,197,400,Red,7.13352e-319,J,J,CORRECT,Draft,retinotopic.prs
RETINOTOPICTASK,Intermediate,250,198,350,Red,7.13352e-319,J,J,CORRECT,Draft,retinotopic.prs
RETINOTOPICTASK,Spatiotopic,250,199,350,Red,7.13352e-319,J,J,CORRECT,Draft,retinotopic.prs
RETINOTOPICTASK,Retinotopic,50,200,350,Red,7.13352e-319,J,J,CORRECT,Draft,retinotopic.prs
RETINOTOPICTASK,Spatiotopic,250,1,524,Blue,7.13352e-319,F,F,CORRECT,Draft,retinotopic.prs
RETINOTOPICTASK,Spatiotopic,250,2,350,Red,7.13352e-319,J,J,CORRECT,Draft,retinotopic.prs
RETINOTOPICTASK,Spatiotopic,400,3,374,Blue,7.13352e-319,F,F,CORRECT,Draft,retinotopic.prs
RETINOTOPICTASK,Spatiotopic,50,4,350,Red,7.13352e-319,J,J,CORRECT,Draft,retinotopic.prs
RETINOTOPICTASK,Intermediate,50,5,350,Blue,7.13352e-319,F,F,CORRECT,Draft,retinotopic.prs
RETINOTOPICTASK,Retinotopic,250,6,350,Blue,7.13352e-319,F,F,CORRECT,Draft,retinotopic.prs
RETINOTOPICTASK,Intermediate,400,7,350,Red,7.13352e-319,J,J,CORRECT,Draft,retinotopic.prs
RETINOTOPICTASK,Retinotopic,250,8,350,Red,7.13352e-319,J,J,CORRECT,Draft,retinotopic.prs
RETINOTOPICTASK,Retinotopic,50,9,350,Red,7.13352e-319,J,J,CORRECT,Draft,retinotopic.prs
RETINOTOPICTASK,Retinotopic,250,10,350,Blue,7.13352e-319,F,F,CORRECT,Draft,retinotopic.prs
RETINOTOPICTASK,Retinotopic,400,11,350,Red,7.13352e-319,J,J,CORRECT,Draft,retinotopic.prs
RETINOTOPICTASK,Intermediate,250,12,350,Blue,7.13352e-319,F,F,CORRECT,Draft,retinotopic.prs
RETINOTOPICTASK,Spatiotopic,250,13,350,Blue,7.13352e-319,F,F,CORRECT,Draft,retinotopic.prs
RETINOTOPICTASK,Intermediate,250,14,350,Red,7.13352e-319,J,J,CORRECT,Draft,retinotopic.prs
RETINOTOPICTASK,Spatiotopic,50,15,350,Red,7.13352e-319,J,J,CORRECT,Draft,retinotopic.prs
RETINOTOPICTASK,Spatiotopic,50,16,400,Red,7.13352e-319,J,J,CORRECT,Draft,retinotopic.prs
RETINOTOPICTASK,Retinotopic,50,17,350,Blue,7.13352e-319,F,F,CORRECT,Draft,retinotopic.prs
RETINOTOPICTASK,Retinotopic,400,18,350,Red,7.13352e-319,J,J,CORRECT,Draft,retinotopic.prs
RETINOTOPICTASK,Spatiotopic,250,19,400,Red,7.13352e-319,J,J,CORRECT,Draft,retinotopic.prs
RETINOTOPICTASK,Intermediate,50,20,350,Red,7.13352e-319,J,J,CORRECT,Draft,retinotopic.prs
RETINOTOPICTASK,Spatiotopic,250,21,350,Red,7.13352e-319,J,J,CORRECT,Draft,retinotopic.prs
RETINOTOPICTASK,Intermediate,400,22,350,Blue,7.13352e-319,F,F,CORRECT,Draft,retinotopic.prs
RETINOTOPICTASK,Intermediate,250,23,350,Red,7.13352e-319,J,J,CORRECT,Draft,retinotopic.prs
RETINOTOPICTASK,Intermediate,50,24,350,Blue,7.13352e-319,F,F,CORRECT,Draft,retinotopic.prs
RETINOTOPICTASK,Intermediate,400,25,350,Blue,7.13352e-319,F,F,CORRECT,Draft,retinotopic.prs
RETINOTOPICTASK,Retinotopic,50,26,350,Blue,7.13352e-319,F,F,CORRECT,Draft,retinotopic.prs
RETINOTOPICTASK,Intermediate,50,27,350,Blue,7.13352e-319,F,F,CORRECT,Draft,retinotopic.prs
RETINOTOPICTASK,Intermediate,250,28,350,Blue,7.13352e-319,F,F,CORRECT,Draft,retinotopic.prs
RETINOTOPICTASK,Spatiotopic,50,29,350,Blue,7.13352e-319,F,F,CORRECT,Draft,retinotopic.prs
RETINOTOPICTASK,Retinotopic,50,30,350,Red,7.13352e-319,J,J,CORRECT,Draft,retinotopic.prs
RETINOTOPICTASK,Intermediate,50,31,350,Red,7.13352e-319,J,J,CORRECT,Draft,retinotopic.prs
RETINOTOPICTASK,Intermediate,250,32,350,Blue,7.13352e-319,F,F,CORRECT,Draft,retinotopic.prs
RETINOTOPICTASK,Spatiotopic,400,33,350,Red,7.13352e-319,J,J,CORRECT,Draft,retinotopic.prs
RETINOTOPICTASK,Spatiotopic,50,34,400,Red,7.13352e-319,J,J,CORRECT,Draft,retinotopic.prs
RETINOTOPICTASK,Spatiotopic,250,35,400,Red,7.13352e-319,J,J,CORRECT,Draft,retinotopic.prs
RETINOTOPICTASK,Retinotopic,250,36,350,Blue,7.13352e-319,F,F,CORRECT,Draft,retinotopic.prs
RETINOTOPICTASK,Retinotopic,250,37,350,Red,7.13352e-319,J,J,CORRECT,Draft,retinotopic.prs
RETINOTOPICTASK,Retinotopic,50,38,350,Red,7.13352e-319,J,J,CORRECT,Draft,retinotopic.prs
RETINOTOPICTASK,Intermediate,400,39,350,Red,7.13352e-319,J,J,CORRECT,Draft,retinotopic.prs
RETINOTOPICTASK,Retinotopic,400,40,350,Blue,7.13352e-319,F,F,CORRECT,Draft,retinotopic.prs
RETINOTOPICTASK,Intermediate,250,41,350,Red,7.13352e-319,J,J,CORRECT,Draft,retinotopic.prs
RETINOTOPICTASK,Spatiotopic,250,42,350,Blue,7.13352e-319,F,F,CORRECT,Draft,retinotopic.prs
RETINOTOPICTASK,Spatiotopic,250,43,350,Red,7.13352e-319,J,J,CORRECT,Draft,retinotopic.prs
RETINOTOPICTASK,Spatiotopic,50,44,350,Blue,7.13352e-319,F,F,CORRECT,Draft,retinotopic.prs
RETINOTOPICTASK,Spatiotopic,250,45,350,Blue,7.13352e-319,F,F,CORRECT,Draft,retinotopic.prs
RETINOTOPICTASK,Intermediate,50,46,350,Red,7.13352e-319,J,J,CORRECT,Draft,retinotopic.prs
RETINOTOPICTASK,Retinotopic,400,47,350,Red,7.13352e-319,J,J,CORRECT,Draft,retinotopic.prs
RETINOTOPICTASK,Spatiotopic,250,48,400,Red,7.13352e-319,J,J,CORRECT,Draft,retinotopic.prs
RETINOTOPICTASK,Retinotopic,250,49,350,Blue,7.13352e-319,F,F,CORRECT,Draft,retinotopic.prs
RETINOTOPICTASK,Retinotopic,250,50,350,Red,7.13352e-319,J,J,CORRECT,Draft,retinotopic.prs
RETINOTOPICTASK,Intermediate,400,51,350,Blue,7.13352e-319,F,F,CORRECT,Draft,retinotopic.prs
RETINOTOPICTASK,Spatiotopic,400,52,400,Red,7.13352e-319,J,J,CORRECT,Draft,retinotopic.prs
RETINOTOPICTASK,Retinotopic,400,53,350,Blue,7.13352e-319,F,F,CORRECT,Draft,retinotopic.prs
RETINOTOPICTASK,Retinotopic,250,54,350,Red,7.13352e-319,J,J,CORRECT,Draft,retinotopic.prs
RETINOTOPICTASK,Retinotopic,250,55,350,Blue,7.13352e-319,F,F,CORRECT,Draft,retinotopic.prs
RETINOTOPICTASK,Retinotopic,50,56,350,Blue,7.13352e-319,F,F,CORRECT,Draft,retinotopic.prs
RETINOTOPICTASK,Retinotopic,250,57,350,Blue,7.13352e-319,F,F,CORRECT,Draft,retinotopic.prs
RETINOTOPICTASK,Retinotopic,250,58,350,Red,7.13352e-319,J,J,CORRECT,Draft,retinotopic.prs
RETINOTOPICTASK,Retinotopic,250,59,350,Red,7.13352e-319,J,J,CORRECT,Draft,retinotopic.prs
RETINOTOPICTASK,Retinotopic,250,60,350,Blue,7.13352e-319,F,F,CORRECT,Draft,retinotopic.prs
RETINOTOPICTASK,Spatiotopic,400,61,350,Blue,7.13352e-319,F,F,CORRECT,Draft,retinotopic.prs
RETINOTOPICTASK,Intermediate,250,62,350,Red,7.13352e-319,J,J,CORRECT,Draft,retinotopic.prs
RETINOTOPICTASK,Intermediate,400,63,350,Blue,7.13352e-319,F,F,CORRECT,Draft,retinotopic.prs
RETINOTOPICTASK,Retinotopic,250,64,350,Blue,7.13352e-319,F,F,CORRECT,Draft,retinotopic.prs
RETINOTOPICTASK,Retinotopic,400,65,350,Blue,7.13352e-319,F,F,CORRECT,Draft,retinotopic.prs
RETINOTOPICTASK,Retinotopic,400,66,350,Blue,7.13352e-319,F,F,CORRECT,Draft,retinotopic.prs
RETINOTOPICTASK,Spatiotopic,50,67,400,Blue,7.13352e-319,F,F,CORRECT,Draft,retinotopic.prs
RETINOTOPICTASK,Retinotopic,400,68,350,Red,7.13352e-319,J,J,CORRECT,Draft,retinotopic.prs
RETINOTOPICTASK,Spatiotopic,250,69,400,Blue,7.13352e-319,F,F,CORRECT,Draft,retinotopic.prs
RETINOTOPICTASK,Intermediate,400,70,350,Red,7.13352e-319,J,J,CORRECT,Draft,retinotopic.prs
RETINOTOPICTASK,Spatiotopic,250,71,350,Red,7.13352e-319,J,J,CORRECT,Draft,retinotopic.prs
RETINOTOPICTASK,Intermediate,50,72,350,Blue,7.13352e-319,F,F,CORRECT,Draft,retinotopic.prs
RETINOTOPICTASK,Spatiotopic,250,73,350,Red,7.13352e-319,J,J,CORRECT,Draft,retinotopic.prs
RETINOTOPICTASK,Spatiotopic,400,74,400,Red,7.13352e-319,J,J,CORRECT,Draft,retinotopic.prs
RETINOTOPICTASK,Retinotopic,250,75,350,Red,7.13352e-319,J,J,CORRECT,Draft,retinotopic.prs
RETINOTOPICTASK,Spatiotopic,400,76,350,Red,7.13352e-319,J,J,CORRECT,Draft,retinotopic.prs
RETINOTOPICTASK,Retinotopic,400,77,350,Red,7.13352e-319,J,J,CORRECT,Draft,retinotopic.prs
RETINOTOPICTASK,Retinotopic,50,78,350,Blue,7.13352e-319,F,F,CORRECT,Draft,retinotopic.prs
RETINOTOPICTASK,Intermediate,400,79,350,Blue,7.13352e-319,F,F,CORRECT,Draft,retinotopic.prs
RETINOTOPICTASK,Retinotopic,250,80,350,Red,7.13352e-319,J,J,CORRECT,Draft,retinotopic.prs
RETINOTOPICTASK,Retinotopic,400,81,350,Red,7.13352e-319,J,J,CORRECT,Draft,retinotopic.prs
RETINOTOPICTASK,Spatiotopic,50,82,350,Blue,7.13352e-319,F,F,CORRECT,Draft,retinotopic.prs
RETINOTOPICTASK,Retinotopic,250,83,350,Red,7.13352e-319,J,J,CORRECT,Draft,retinotopic.prs
RETINOTOPICTASK,Retinotopic,250,84,350,Blue,7.13352e-319,F,F,CORRECT,Draft,retinotopic.prs
RETINOTOPICTASK,Retinotopic,50,85,400,Blue,7.13352e-319,F,F,CORRECT,Draft,retinotopic.prs
RETINOTOPICTASK,Intermediate,400,86,350,Red,7.13352e-319,J,J,CORRECT,Draft,retinotopic.prs
RETINOTOPICTASK,Intermediate,250,87,350,Blue,7.13352e-319,F,F,CORRECT,Draft,retinotopic.prs
RETINOTOPICTASK,Intermediate,250,88,350,Red,7.13352e-319,J,J,CORRECT,Draft,retinotopic.prs
RETINOTOPICTASK,Intermediate,250,89,350,Red,7.13352e-319,J,J,CORRECT,Draft,retinotopic.prs
RETINOTOPICTASK,Intermediate,50,90,350,Red,7.13352e-319,J,J,CORRECT,Draft,retinotopic.prs
RETINOTOPICTASK,Intermediate,50,91,350,Blue,7.13352e-319,F,F,CORRECT,Draft,retinotopic.prs
RETINOTOPICTASK,Spatiotopic,50,92,350,Blue,7.13352e-319,F,F,CORRECT,Draft,retinotopic.prs
RETINOTOPICTASK,Retinotopic,400,93,350,Red,7.13352e-319,J,J,CORRECT,Draft,retinotopic.prs
RETINOTOPICTASK,Spatiotopic,400,94,400,Red,7.13352e-319,J,J,CORRECT,Draft,retinotopic.prs
RETINOTOPICTASK,Intermediate,250,95,350,Red,7.13352e-319,J,J,CORRECT,Draft,retinotopic.prs
RETINOTOPICTASK,Spatiotopic,250,96,400,Red,7.13352e-319,J,J,CORRECT,Draft,retinotopic.prs
RETINOTOPICTASK,Intermediate,50,97,350,Blue,7.13352e-319,F,F,CORRECT,Draft,retinotopic.prs
RETINOTOPICTASK,Intermediate,50,98,350,Red,7.13352e-319,J,J,CORRECT,Draft,retinotopic.prs
RETINOTOPICTASK,Intermediate,50,99,350,Blue,7.13352e-319,F,F,CORRECT,Draft,retinotopic.prs
RETINOTOPICTASK,Spatiotopic,250,100,350,Blue,7.13352e-319,F,F,CORRECT,Draft,retinotopic.prs
RETINOTOPICTASK,Intermediate,400,101,350,Blue,7.13352e-319,F,F,CORRECT,Draft,retinotopic.prs
RETINOTOPICTASK,Retinotopic,400,102,350,Red,7.13352e-319,J,J,CORRECT,Draft,retinotopic.prs
RETINOTOPICTASK,Intermediate,400,103,350,Red,7.13352e-319,J,J,CORRECT,Draft,retinotopic.prs
RETINOTOPICTASK,Retinotopic,400,104,350,Red,7.13352e-319,J,J,CORRECT,Draft,retinotopic.prs
RETINOTOPICTASK,Spatiotopic,400,105,350,Blue,7.13352e-319,F,F,CORRECT,Draft,retinotopic.prs
RETINOTOPICTASK,Spatiotopic,250,106,350,Red,7.13352e-319,J,J,CORRECT,Draft,retinotopic.prs
RETINOTOPICTASK,Intermediate,50,107,350,Blue,7.13352e-319,F,F,CORRECT,Draft,retinotopic.prs
RETINOTOPICTASK,Spatiotopic,400,108,400,Blue,7.13352e-319,F,F,CORRECT,Draft,retinotopic.prs
RETINOTOPICTASK,Spatiotopic,50,109,400,Blue,7.13352e-319,F,F,CORRECT,Draft,retinotopic.prs
RETINOTOPICTASK,Intermediate,50,110,350,Blue,7.13352e-319,F,F,CORRECT,Draft,retinotopic.prs
RETINOTOPICTASK,Intermediate,50,111,350,Blue,7.13352e-319,F,F,CORRECT,Draft,retinotopic.prs
RETINOTOPICTASK,Intermediate,250,112,350,Blue,7.13352e-319,F,F,CORRECT,Draft,retinotopic.prs
RETINOTOPICTASK,Retinotopic,250,113,350,Blue,7.13352e-319,F,F,CORRECT,Draft,retinotopic.prs
RETINOTOPICTASK,Retinotopic,250,114,350,Red,7.13352e-319,J,J,CORRECT,Draft,retinotopic.prs
RETINOTOPICTASK,Spatiotopic,50,115,350,Red,7.13352e-319,J,J,CORRECT,Draft,retinotopic.prs
RETINOTOPICTASK,Spatiotopic,250,116,400,Blue,7.13352e-319,F,F,CORRECT,Draft,retinotopic.prs
RETINOTOPICTASK,Retinotopic,400,117,350,Blue,7.13352e-319,F,F,CORRECT,Draft,retinotopic.prs
RETINOTOPICTASK,Intermediate,400,118,350,Red,7.13352e-319,J,J,CORRECT,Draft,retinotopic.prs
RETINOTOPICTASK,Intermediate,250,119,350,Red,7.13352e-319,J,J,CORRECT,Draft,retinotopic.prs
RETINOTOPICTASK,Intermediate,400,120,350,Blue,7.13352e-319,F,F,CORRECT,Draft,retinotopic.prs
RETINOTOPICTASK,Intermediate,400,121,350,Red,7.13352e-319,J,J,CORRECT,Draft,retinotopic.prs
RETINOTOPICTASK,Retinotopic,400,122,350,Red,7.13352e-319,J,J,CORRECT,Draft,retinotopic.prs
RETINOTOPICTASK,Retinotopic,250,123,350,Blue,7.13352e-319,F,F,CORRECT,Draft,retinotopic.prs
RETINOTOPICTASK,Retinotopic,50,124,350,Blue,7.13352e-319,F,F,CORRECT,Draft,retinotopic.prs
RETINOTOPICTASK,Intermediate,400,125,350,Blue,7.13352e-319,F,F,CORRECT,Draft,retinotopic.prs
RETINOTOPICTASK,Spatiotopic,400,126,350,Red,7.13352e-319,J,J,CORRECT,Draft,retinotopic.prs
RETINOTOPICTASK,Retinotopic,250,127,350,Red,7.13352e-319,J,J,CORRECT,Draft,retinotopic.prs
RETINOTOPICTASK,Retinotopic,400,128,350,Blue,7.13352e-319,F,F,CORRECT,Draft,retinotopic.prs
RETINOTOPICTASK,Retinotopic,250,129,350,Red,7.13352e-319,J,J,CORRECT,Draft,retinotopic.prs
RETINOTOPICTASK,Spatiotopic,250,130,400,Blue,7.13352e-319,F,F,CORRECT,Draft,retinotopic.prs
RETINOTOPICTASK,Spatiotopic,250,131,400,Blue,7.13352e-319,F,F,CORRECT,Draft,retinotopic.prs
RETINOTOPICTASK,Spatiotopic,250,132,350,Blue,7.13352e-319,F,F,CORRECT,Draft,retinotopic.prs
RETINOTOPICTASK,Spatiotopic,400,133,350,Blue,7.13352e-319,F,F,CORRECT,Draft,retinotopic.prs
RETINOTOPICTASK,Spatiotopic,250,134,400,Red,7.13352e-319,J,J,CORRECT,Draft,retinotopic.prs
RETINOTOPICTASK,Spatiotopic,250,135,400,Blue,7.13352e-319,F,F,CORRECT,Draft,retinotopic.prs
RETINOTOPICTASK,Spatiotopic,250,136,400,Blue,7.13352e-319,F,F,CORRECT,Draft,retinotopic.prs
RETINOTOPICTASK,Intermediate,250,137,350,Blue,7.13352e-319,F,F,CORRECT,Draft,retinotopic.prs
RETINOTOPICTASK,Retinotopic,400,138,350,Blue,7.13352e-319,F,F,CORRECT,Draft,retinotopic.prs
RETINOTOPICTASK,Intermediate,250,139,350,Red,7.13352e-319,J,J,CORRECT,Draft,retinotopic.prs
RETINOTOPICTASK,Spatiotopic,50,140,350,Blue,7.13352e-319,F,F,CORRECT,Draft,retinotopic.prs
RETINOTOPICTASK,Spatiotopic,250,141,350,Blue,7.13352e-319,F,F,CORRECT,Draft,retinotopic.prs
RETINOTOPICTASK,Spatiotopic,50,142,400,Red,7.13352e-319,J,J,CORRECT,Draft,retinotopic.prs
RETINOTOPICTASK,Retinotopic,50,143,400,Red,7.13352e-319,J,J,CORRECT,Draft,retinotopic.prs
RETINOTOPICTASK,Intermediate,250,144,350,Red,7.13352e-319,J,J,CORRECT,Draft,retinotopic.prs
RETINOTOPICTASK,Intermediate,50,145,350,Blue,7.13352e-319,F,F,CORRECT,Draft,retinotopic.prs
RETINOTOPICTASK,Spatiotopic,250,146,400,Red,7.13352e-319,J,J,CORRECT,Draft,retinotopic.prs
RETINOTOPICTASK,Intermediate,250,147,350,Blue,7.13352e-319,F,F,CORRECT,Draft,retinotopic.prs
RETINOTOPICTASK,Spatiotopic,50,148,400,Red,7.13352e-319,J,J,CORRECT,Draft,retinotopic.prs
RETINOTOPICTASK,Spatiotopic,50,149,400,Red,7.13352e-319,J,J,CORRECT,Draft,retinotopic.prs
RETINOTOPICTASK,Retinotopic,400,150,350,Blue,7.13352e-319,F,F,CORRECT,Draft,retinotopic.prs
RETINOTOPICTASK,Intermediate,50,151,350,Blue,7.13352e-319,F,F,CORRECT,Draft,retinotopic.prs
RETINOTOPICTASK,Intermediate,400,152,350,Blue,7.13352e-319,F,F,CORRECT,Draft,retinotopic.prs
RETINOTOPICTASK,Retinotopic,50,153,350,Blue,7.13352e-319,F,F,CORRECT,Draft,retinotopic.prs
RETINOTOPICTASK,Intermediate,400,154,350,Blue,7.13352e-319,F,F,CORRECT,Draft,retinotopic.prs
RETINOTOPICTASK,Retinotopic,50,155,350,Blue,7.13352e-319,F,F,CORRECT,Draft,retinotopic.prs
RETINOTOPICTASK,Retinotopic,400,156,350,Blue,7.13352e-319,F,F,CORRECT,Draft,retinotopic.prs
RETINOTOPICTASK,Spatiotopic,400,157,350,Blue,7.13352e-319,F,F,CORRECT,Draft,retinotopic.prs
RETINOTOPICTASK,Intermediate,400,158,350,Red,7.13352e-319,J,J,CORRECT,Draft,retinotopic.prs
RETINOTOPICTASK,Retinotopic,250,159,350,Blue,7.13352e-319,F,F,CORRECT,Draft,retinotopic.prs
RETINOTOPICTASK,Intermediate,250,160,350,Red,7.13352e-319,J,J,CORRECT,Draft,retinotopic.prs
RETINOTOPICTASK,Spatiotopic,250,161,350,Red,7.13352e-319,J,J,CORRECT,Draft,retinotopic.prs
RETINOTOPICTASK,Spatiotopic,400,162,350,Red,7.13352e-319,J,J,CORRECT,Draft,retinotopic.prs
RETINOTOPICTASK,Retinotopic,250,163,350,Red,7.13352e-319,J,J,CORRECT,Draft,retinotopic.prs
RETINOTOPICTASK,Intermediate,50,164,350,Red,7.13352e-319,J,J,CORRECT,Draft,retinotopic.prs
RETINOTOPICTASK,Retinotopic,50,165,350,Blue,7.13352e-319,F,F,CORRECT,Draft,retinotopic.prs
RETINOTOPICTASK,Retinotopic,250,166,350,Blue,7.13352e-319,F,F,CORRECT,Draft,retinotopic.prs
RETINOTOPICTASK,Intermediate,250,167,350,Red,7.13352e-319,J,J,CORRECT,Draft,retinotopic.prs
RETINOTOPICTASK,Retinotopic,400,168,350,Red,7.13352e-319,J,J,CORRECT,Draft,retinotopic.prs
RETINOTOPICTASK,Retinotopic,250,169,350,Red,7.13352e-319,J,J,CORRECT,Draft,retinotopic.prs
RETINOTOPICTASK,Intermediate,250,170,350,Red,7.13352e-319,J,J,CORRECT,Draft,retinotopic.prs
RETINOTOPICTASK,Retinotopic,400,171,350,Blue,7.13352e-319,F,F,CORRECT,Draft,retinotopic.prs
RETINOTOPICTASK,Retinotopic,50,172,400,Blue,7.13352e-319,F,F,CORRECT,Draft,retinotopic.prs
RETINOTOPICTASK,Intermediate,250,173,350,Red,7.13352e-319,J,J,CORRECT,Draft,retinotopic.prs
RETINOTOPICTASK,Intermediate,400,174,350,Red,7.13352e-319,J,J,CORRECT,Draft,retinotopic.prs
RETINOTOPICTASK,Retinotopic,400,175,350,Blue,7.13352e-319,F,F,CORRECT,Draft,retinotopic.prs
RETINOTOPICTASK,Retinotopic,400,176,350,Red,7.13352e-319,J,J,CORRECT,Draft,retinotopic.prs
RETINOTOPICTASK,Intermediate,400,177,350,Red,7.13352e-319,J,J,CORRECT,Draft,retinotopic.prs
RETINOTOPICTASK,Intermediate,50,178,350,Red,7.13352e-319,J,J,CORRECT,Draft,retinotopic.prs
RETINOTOPICTASK,Spatiotopic,250,179,400,Red,7.13352e-319,J,J,CORRECT,Draft,retinotopic.prs
RETINOTOPICTASK,Spatiotopic,250,180,400,Blue,7.13352e-319,F,F,CORRECT,Draft,retinotopic.prs
RETINOTOPICTASK,Intermediate,400,181,350,Blue,7.13352e-319,F,F,CORRECT,Draft,retinotopic.prs
RETINOTOPICTASK,Retinotopic,50,182,350,Red,7.13352e-319,J,J,CORRECT,Draft,retinotopic.prs
RETINOTOPICTASK,Retinotopic,250,183,350,Blue,7.13352e-319,F,F,CORRECT,Draft,retinotopic.prs
RETINOTOPICTASK,Intermediate,250,184,350,Blue,7.13352e-319,F,F,CORRECT,Draft,retinotopic.prs
RETINOTOPICTASK,Retinotopic,250,185,350,Red,7.13352e-319,J,J,CORRECT,Draft,retinotopic.prs
RETINOTOPICTASK,Spatiotopic,50,186,400,Red,7.13352e-319,J,J,CORRECT,Draft,retinotopic.prs
RETINOTOPICTASK,Spatiotopic,400,187,400,Red,7.13352e-319,J,J,CORRECT,Draft,retinotopic.prs
RETINOTOPICTASK,Spatiotopic,400,188,350,Red,7.13352e-319,J,J,CORRECT,Draft,retinotopic.prs
RETINOTOPICTASK,Spatiotopic,250,189,400,Red,7.13352e-319,J,J,CORRECT,Draft,retinotopic.prs
RETINOTOPICTASK,Spatiotopic,400,190,400,Red,7.13352e-319,J,J,CORRECT,Draft,retinotopic.prs
RETINOTOPICTASK,Retinotopic,250,191,350,Red,7.13352e-319,J,J,CORRECT,Draft,retinotopic.prs
RETINOTOPICTASK,Spatiotopic,400,192,400,Red,7.13352e-319,J,J,CORRECT,Draft,retinotopic.prs
RETINOTOPICTASK,Retinotopic,400,193,350,Red,7.13352e-319,J,J,CORRECT,Draft,retinotopic.prs
RETINOTOPICTASK,Intermediate,50,194,350,Blue,7.13352e-319,F,F,CORRECT,Draft,retinotopic.prs
RETINOTOPICTASK,Spatiotopic,400,195,400,Blue,7.13352e-319,F,F,CORRECT,Draft,retinotopic.prs
RETINOTOPICTASK,Spatiotopic,250,196,350,Blue,7.13352e-319,F,F,CORRECT,Draft,retinotopic.prs
RETINOTOPICTASK,Retinotopic,50,197,350,Blue,7.13352e-319,F,F,CORRECT,Draft,retinotopic.prs
RETINOTOPICTASK,Retinotopic,250,198,350,Red,7.13352e-319,J,J,CORRECT,Draft,retinotopic.prs
RETINOTOPICTASK,Retinotopic,250,199,350,Red,7.13352e-319,J,J,CORRECT,Draft,retinotopic.prs
RETINOTOPICTASK,Intermediate,400,200,350,Red,7.13352e-319,J,J,CORRECT,Draft,retinotopic.prs
RETINOTOPICTASK,Retinotopic,400,1,524,Blue,7.13352e-319,F,F,CORRECT,Draft,retinotopic.prs
RETINOTOPICTASK,Spatiotopic,50,2,374,Red,7.13352e-319,J,J,CORRECT,Draft,retinotopic.prs
RETINOTOPICTASK,Retinotopic,250,3,374,Red,7.13352e-319,J,J,CORRECT,Draft,retinotopic.prs
RETINOTOPICTASK,Retinotopic,50,4,350,Blue,7.13352e-319,F,F,CORRECT,Draft,retinotopic.prs
RETINOTOPICTASK,Intermediate,250,5,350,Blue,7.13352e-319,F,F,CORRECT,Draft,retinotopic.prs
RETINOTOPICTASK,Retinotopic,50,6,350,Blue,7.13352e-319,F,F,CORRECT,Draft,retinotopic.prs
RETINOTOPICTASK,Intermediate,250,7,350,Blue,7.13352e-319,F,F,CORRECT,Draft,retinotopic.prs
RETINOTOPICTASK,Spatiotopic,50,8,350,Blue,7.13352e-319,F,F,CORRECT,Draft,retinotopic.prs
RETINOTOPICTASK,Retinotopic,250,9,350,Blue,7.13352e-319,F,F,CORRECT,Draft,retinotopic.prs
RETINOTOPICTASK,Spatiotopic,250,10,400,Red,7.13352e-319,J,J,CORRECT,Draft,retinotopic.prs
RETINOTOPICTASK,Retinotopic,400,11,350,Red,7.13352e-319,J,J,CORRECT,Draft,retinotopic.prs
RETINOTOPICTASK,Retinotopic,400,12,350,Blue,7.13352e-319,F,F,CORRECT,Draft,retinotopic.prs
RETINOTOPICTASK,Spatiotopic,400,13,350,Blue,7.13352e-319,F,F,CORRECT,Draft,retinotopic.prs
RETINOTOPICTASK,Spatiotopic,250,14,400,Blue,7.13352e-319,F,F,CORRECT,Draft,retinotopic.prs
RETINOTOPICTASK,Spatiotopic,250,15,400,Blue,7.13352e-319,F,F,CORRECT,Draft,retinotopic.prs
RETINOTOPICTASK,Spatiotopic,400,16,400,Red,7.13352e-319,J,J,CORRECT,Draft,retinotopic.prs
RETINOTOPICTASK,Retinotopic,250,17,350,Red,7.13352e-319,J,J,CORRECT,Draft,retinotopic.prs
RETINOTOPICTASK,Retinotopic,400,18,350,Blue,7.13352e-319,F,F,CORRECT,Draft,retinotopic.prs
RETINOTOPICTASK,Retinotopic,250,19,350,Blue,7.13352e-319,F,F,CORRECT,Draft,retinotopic.prs
RETINOTOPICTASK,Retinotopic,50,20,350,Red,7.13352e-319,J,J,CORRECT,Draft,retinotopic.prs
RETINOTOPICTASK,Retinotopic,250,21,350,Red,7.13352e-319,J,J,CORRECT,Draft,retinotopic.prs
RETINOTOPICTASK,Spatiotopic,400,22,350,Red,7.13352e-319,J,J,CORRECT,Draft,retinotopic.prs
RETINOTOPICTASK,Retinotopic,250,23,350,Blue,7.13352e-319,F,F,CORRECT,Draft,retinotopic.prs
RETINOTOPICTASK,Retinotopic,50,24,350,Red,7.13352e-319,J,J,CORRECT,Draft,retinotopic.prs
RETINOTOPICTASK,Spatiotopic,250,25,350,Blue,7.13352e-319,F,F,CORRECT,Draft,retinotopic.prs
RETINOTOPICTASK,Spatiotopic,250,26,400,Red,7.13352e-319,J,J,CORRECT,Draft,retinotopic.prs
RETINOTOPICTASK,Spatiotopic,250,27,400,Red,7.13352e-319,J,J,CORRECT,Draft,retinotopic.prs
RETINOTOPICTASK,Intermediate,250,28,350,Blue,7.13352e-319,F,F,CORRECT,Draft,retinotopic.prs
RETINOTOPICTASK,Spatiotopic,400,29,350,Red,7.13352e-319,J,J,CORRECT,Draft,retinotopic.prs
RETINOTOPICTASK,Retinotopic,50,30,350,Red,7.13352e-319,J,J,CORRECT,Draft,retinotopic.prs
RETINOTOPICTASK,Spatiotopic,250,31,350,Red,7.13352e-319,J,J,CORRECT,Draft,retinotopic.prs
RETINOTOPICTASK,Intermediate,400,32,350,Red,7.13352e-319,J,J,CORRECT,Draft,retinotopic.prs
RETINOTOPICTASK,Intermediate,50,33,350,Red,7.13352e-319,J,J,CORRECT,Draft,retinotopic.prs
RETINOTOPICTASK,Intermediate,250,34,350,Red,7.13352e-319,J,J,CORRECT,Draft,retinotopic.prs
RETINOTOPICTASK,Intermediate,400,35,350,Blue,7.13352e-319,F,F,CORRECT,Draft,retinotopic.prs
RETINOTOPICTASK,Spatiotopic,50,36,350,Red,7.13352e-319,J,J,CORRECT,Draft,retinotopic.prs
RETINOTOPICTASK,Spatiotopic,400,37,400,Red,7.13352e-319,J,J,CORRECT,Draft,retinotopic.prs
RETINOTOPICTASK,Intermediate,400,38,350,Blue,7.13352e-319,F,F,CORRECT,Draft,retinotopic.prs
RETINOTOPICTASK,Intermediate,50,39,350,Red,7.13352e-319,J,J,CORRECT,Draft,retinotopic.prs
RETINOTOPICTASK,Spatiotopic,250,40,400,Red,7.13352e-319,J,J,CORRECT,Draft,retinotopic.prs
RETINOTOPICTASK,Spatiotopic,400,41,350,Red,7.13352e-319,J,J,CORRECT,Draft,retinotopic.prs
RETINOTOPICTASK,Intermediate,400,42,350,Blue,7.13352e-319,F,F,CORRECT,Draft,retinotopic.prs
RETINOTOPICTASK,Retinotopic,50,43,350,Red,7.13352e-319,J,J,CORRECT,Draft,retinotopic.prs
RETINOTOPICTASK,Spatiotopic,400,44,350,Red,7.13352e-319,J,J,CORRECT,Draft,retinotopic.prs
RETINOTOPICTASK,Intermediate,250,45,350,Red,7.13352e-319,J,J,CORRECT,Draft,retinotopic.prs
RETINOTOPICTASK,Retinotopic,250,46,350,Blue,7.13352e-319,F,F,CORRECT,Draft,retinotopic.prs
RETINOTOPICTASK,Intermediate,50,47,350,Blue,7.13352e-319,F,F,CORRECT,Draft,retinotopic.prs
RETINOTOPICTASK,Intermediate,50,48,350,Blue,7.13352e-319,F,F,CORRECT,Draft,retinotopic.prs
RETINOTOPICTASK,Intermediate,250,49,350,Red,7.13352e-319,J,J,CORRECT,Draft,retinotopic.prs
RETINOTOPICTASK,Spatiotopic,50,50,350,Blue,7.13352e-319,F,F,CORRECT,Draft,retinotopic.prs
RETINOTOPICTASK,Spatiotopic,250,51,400,Red,7.13352e-319,J,J,CORRECT,Draft,retinotopic.prs
RETINOTOPICTASK,Retinotopic,50,52,350,Red,7.13352e-319,J,J,CORRECT,Draft,retinotopic.prs
RETINOTOPICTASK,Intermediate,50,53,350,Blue,7.13352e-319,F,F,CORRECT,Draft,retinotopic.prs
RETINOTOPICTASK,Spatiotopic,50,54,400,Red,7.13352e-319,J,J,CORRECT,Draft,retinotopic.prs
RETINOTOPICTASK,Retinotopic,400,55,350,Red,7.13352e-319,J,J,CORRECT,Draft,retinotopic.prs
RETINOTOPICTASK,Retinotopic,250,56,350,Blue,7.13352e-319,F,F,CORRECT,Draft,retinotopic.prs
RETINOTOPICTASK,Spatiotopic,400,57,400,Blue,7.13352e-319,F,F,CORRECT,Draft,retinotopic.prs
RETINOTOPICTASK,Intermediate,50,58,350,Blue,7.13352e-319,F,F,CORRECT,Draft,retinotopic.prs
RETINOTOPICTASK,Spatiotopic,400,59,350,Red,7.13352e-319,J,J,CORRECT,Draft,retinotopic.prs
RETINOTOPICTASK,Retinotopic,250,60,350,Blue,7.13352e-319,F,F,CORRECT,Draft,retinotopic.prs
RETINOTOPICTASK,Retinotopic,250,61,350,Blue,7.13352e-319,F,F,CORRECT,Draft,retinotopic.prs
RETINOTOPICTASK,Intermediate,250,62,350,Blue,7.13352e-319,F,F,CORRECT,Draft,retinotopic.prs
RETINOTOPICTASK,Retinotopic,50,63,350,Blue,7.13352e-319,F,F,CORRECT,Draft,retinotopic.prs
RETINOTOPICTASK,Intermediate,250,64,350,Red,7.13352e-319,J,J,CORRECT,Draft,retinotopic.prs
RETINOTOPICTASK,Spatiotopic,50,65,350,Red,7.13352e-319,J,J,CORRECT,Draft,retinotopic.prs
RETINOTOPICTASK,Intermediate,400,66,350,Red,7.13352e-319,J,J,CORRECT,Draft,retinotopic.prs
RETINOTOPICTASK,Spatiotopic,250,67,350,Blue,7.13352e-319,F,F,CORRECT,Draft,retinotopic.prs
RETINOTOPICTASK,Retinotopic,250,68,350,Blue,7.13352e-319,F,F,CORRECT,Draft,retinotopic.prs
RETINOTOPICTASK,Retinotopic,250,69,350,Blue,7.13352e-319,F,F,CORRECT,Draft,retinotopic.prs
RETINOTOPICTASK,Intermediate,50,70,350,Red,7.13352e-319,J,J,CORRECT,Draft,retinotopic.prs
RETINOTOPICTASK,Retinotopic,50,71,350,Blue,7.13352e-319,F,F,CORRECT,Draft,retinotopic.prs
RETINOTOPICTASK,Retinotopic,250,72,350,Red,7.13352e-319,J,J,CORRECT,Draft,retinotopic.prs
RETINOTOPICTASK,Spatiotopic,250,73,350,Blue,7.13352e-319,F,F,CORRECT,Draft,retinotopic.prs
RETINOTOPICTASK,Intermediate,50,74,350,Red,7.13352e-319,J,J,CORRECT,Draft,retinotopic.prs
RETINOTOPICTASK,Retinotopic,400,75,350,Red,7.13352e-319,J,J,CORRECT,Draft,retinotopic.prs
RETINOTOPICTASK,Intermediate,400,76,350,Red,7.13352e-319,J,J,CORRECT,Draft,retinotopic.prs
RETINOTOPICTASK,Retinotopic,50,77,350,Blue,7.13352e-319,F,F,CORRECT,Draft,retinotopic.prs
RETINOTOPICTASK,Spatiotopic,250,78,350,Red,7.13352e-319,J,J,CORRECT,Draft,retinotopic.prs
RETINOTOPICTASK,Retinotopic,50,79,350,Blue,7.13352e-319,F,F,CORRECT,Draft,retinotopic.prs
RETINOTOPICTASK,Retinotopic,400,80,350,Red,7.13352e-319,J,J,CORRECT,Draft,retinotopic.prs
RETINOTOPICTASK,Retinotopic,50,81,400,Red,7.13352e-319,J,J,CORRECT,Draft,retinotopic.prs
RETINOTOPICTASK,Spatiotopic,50,82,350,Red,7.13352e-319,J,J,CORRECT,Draft,retinotopic.prs
RETINOTOPICTASK,Intermediate,250,83,350,Blue,7.13352e-319,F,F,CORRECT,Draft,retinotopic.prs
RETINOTOPICTASK,Retinotopic,400,84,350,Red,7.13352e-319,J,J,CORRECT,Draft,retinotopic.prs
RETINOTOPICTASK,Spatiotopic,50,85,350,Blue,7.13352e-319,F,F,CORRECT,Draft,retinotopic.prs
RETINOTOPICTASK,Retinotopic,50,86,350,Blue,7.13352e-319,F,F,CORRECT,Draft,retinotopic.prs
RETINOTOPICTASK,Retinotopic,50,87,350,Red,7.13352e-319,J,J,CORRECT,Draft,retinotopic.prs
RETINOTOPICTASK,Intermediate,250,88,350,Red,7.13352e-319,J,J,CORRECT,Draft,retinotopic.prs
RETINOTOPICTASK,Intermediate,50,89,350,Red,7.13352e-319,J,J,CORRECT,Draft,retinotopic.prs
RETINOTOPICTASK,Retinotopic,400,90,350,Red,7.13352e-319,J,J,CORRECT,Draft,retinotopic.prs
RETINOTOPICTASK,Intermediate,50,91,350,Red,7.13352e-319,J,J,CORRECT,Draft,retinotopic.prs
RETINOTOPICTASK,Retinotopic,400,92,350,Blue,7.13352e-319,F,F,CORRECT,Draft,retinotopic.prs
RETINOTOPICTASK,Intermediate,400,93,350,Red,7.13352e-319,J,J,CORRECT,Draft,retinotopic.prs
RETINOTOPICTASK,Spatiotopic,250,94,400,Blue,7.13352e-319,F,F,CORRECT,Draft,retinotopic.prs
RETINOTOPICTASK,Spatiotopic,250,95,350,Red,7.13352e-319,J,J,CORRECT,Draft,retinotopic.prs
RETINOTOPICTASK,Spatiotopic,50,96,350,Blue,7.13352e-319,F,F,CORRECT,Draft,retinotopic.prs
RETINOTOPICTASK,Spatiotopic,250,97,350,Red,7.13352e-319,J,J,CORRECT,Draft,retinotopic.prs
RETINOTOPICTASK,Spatiotopic,50,98,350,Blue,7.13352e-319,F,F,CORRECT,Draft,retinotopic.prs
RETINOTOPICTASK,Intermediate,250,99,350,Blue,7.13352e-319,F,F,CORRECT,Draft,retinotopic.prs
RETINOTOPICTASK,Intermediate,250,100,350,Red,7.13352e-319,J,J,CORRECT,Draft,retinotopic.prs
RETINOTOPICTASK,Spatiotopic,400,101,350,Blue,7.13352e-319,F,F,CORRECT,Draft,retinotopic.prs
RETINOTOPICTASK,Intermediate,50,102,350,Red,7.13352e-319,J,J,CORRECT,Draft,retinotopic.prs
RETINOTOPICTASK,Spatiotopic,50,103,350,Blue,7.13352e-319,F,F,CORRECT,Draft,retinotopic.prs
RETINOTOPICTASK,Spatiotopic,400,104,350,Red,7.13352e-319,J,J,CORRECT,Draft,retinotopic.prs
RETINOTOPICTASK,Intermediate,400,105,350,Red,7.13352e-319,J,J,CORRECT,Draft,retinotopic.prs
RETINOTOPICTASK,Spatiotopic,250,106,350,Red,7.13352e-319,J,J,CORRECT,Draft,retinotopic.prs
RETINOTOPICTASK,Intermediate,50,107,350,Red,7.13352e-319,J,J,CORRECT,Draft,retinotopic.prs
RETINOTOPICTASK,Retinotopic,50,108,350,Blue,7.13352e-319,F,F,CORRECT,Draft,retinotopic.prs
RETINOTOPICTASK,Intermediate,400,109,350,Red,7.13352e-319,J,J,CORRECT,Draft,retinotopic.prs
RETINOTOPICTASK,Retinotopic,400,110,400,Blue,7.13352e-319,F,F,CORRECT,Draft,retinotopic.prs
RETINOTOPICTASK,Intermediate,400,111,350,Blue,7.13352e-319,F,F,CORRECT,Draft,retinotopic.prs
RETINOTOPICTASK,Intermediate,250,112,350,Red,7.13352e-319,J,J,CORRECT,Draft,retinotopic.prs
